time,seconds_elapsed,z,y,x
1713313080571836400,0.04183642578125,0,0,0
1713313080581371400,0.051371337890625,0.010332107543945312,-0.013223409652709961,0.14880523085594177
1713313080590906400,0.06090625,0.05424785614013672,-0.040418386459350586,0.26986247301101685
1713313080600441300,0.07044140625,0.07436847686767578,-0.11118388175964355,0.3659246563911438
1713313080609976300,0.079976318359375,0.04424858093261719,-0.25551629066467285,0.3970373272895813
1713313080619511300,0.08951123046875,0.1860818862915039,-0.38645505905151367,0.22556841373443604
1713313080629046300,0.09904638671875,0.43485069274902344,-0.44400978088378906,-0.04939553141593933
1713313080638581200,0.108581298828125,0.7503204345703125,-0.43407678604125977,-0.33442550897598267
1713313080648116200,0.1181162109375,1.0909156799316406,-0.3673543930053711,-0.6084715127944946
1713313080657651200,0.127651123046875,1.3364982604980469,-0.23758983612060547,-0.8342683911323547
1713313080667186200,0.137186279296875,1.4960613250732422,-0.1870417594909668,-0.8000631928443909
1713313080676721200,0.14672119140625,1.5201530456542969,-0.21185064315795898,-0.5806536674499512
1713313080686256000,0.156256103515625,1.3942508697509766,-0.33336639404296875,-0.264912486076355
1713313080695791000,0.165791015625,1.0779151916503906,-0.4019906520843506,0.028860852122306824
1713313080705326000,0.175326171875,0.6960678100585938,-0.4239633083343506,0.15384915471076965
1713313080714861000,0.184861083984375,0.26810741424560547,-0.322873592376709,0.12191222608089447
1713313080724396000,0.19439599609375,-0.14699077606201172,-0.13079261779785156,0.08740439265966415
1713313080733931000,0.203930908203125,-0.5549421310424805,0.048358917236328125,0.1893884837627411
1713313080743466000,0.213466064453125,-0.8609418869018555,0.1700444221496582,0.35035136342048645
1713313080753001000,0.2230009765625,-1.1678943634033203,0.21650362014770508,0.5911235809326172
1713313080762536000,0.232535888671875,-1.412978172302246,0.24877095222473145,0.8230418562889099
1713313080772071000,0.24207080078125,-1.4874629974365234,0.1849660873413086,0.9823505878448486
1713313080781606000,0.25160595703125,-1.4606456756591797,0.12847375869750977,0.9761271476745605
1713313080791140900,0.261140869140625,-1.2753019332885742,0.10877442359924316,0.7582862377166748
1713313080800675800,0.27067578125,-0.9673185348510742,0.10081839561462402,0.43125542998313904
1713313080810211000,0.280211181640625,-0.6592540740966797,0.08376693725585938,0.1475474238395691
1713313080819746000,0.28974609375,-0.3911561965942383,0.04901528358459473,0.015682101249694824
1713313080829281000,0.299281005859375,-0.22611713409423828,-0.0007240772247314453,-0.026442348957061768
1713313080838815700,0.308815673828125,-0.18500423431396484,-0.060358524322509766,0.10652709007263184
1713313080848351000,0.31835107421875,-0.19376754760742188,-0.14812612533569336,0.2948490381240845
1713313080857886000,0.327885986328125,-0.26325416564941406,-0.1721346378326416,0.44050851464271545
1713313080867421000,0.3374208984375,-0.4111471176147461,-0.09173178672790527,0.5104845762252808
1713313080876956000,0.346955810546875,-0.6365480422973633,0.06173563003540039,0.5719525814056396
1713313080886491000,0.356490966796875,-1.0079030990600586,0.16803860664367676,0.6978050470352173
1713313080896025900,0.36602587890625,-1.4189863204956055,0.19394421577453613,0.7865860462188721
1713313080905560800,0.375560791015625,-1.631474494934082,0.15296673774719238,0.8488630652427673
1713313080915095800,0.385095703125,-1.6945819854736328,0.11590814590454102,0.7377400994300842
1713313080924630800,0.394630859375,-1.7922463417053223,0.05301713943481445,0.6440911889076233
1713313080934165800,0.404165771484375,-1.7339277267456055,-0.010730743408203125,0.506176233291626
1713313080943700700,0.41370068359375,-1.5197553634643555,-0.06501603126525879,0.3190463185310364
1713313080953235700,0.423235595703125,-1.2585735321044922,-0.0832676887512207,0.02727319300174713
1713313080962770700,0.432770751953125,-0.9418191909790039,-0.13010811805725098,-0.2531905174255371
1713313080972305700,0.4423056640625,9.596343040466309,1.698148250579834,8.390600204467773
1713313080981840600,0.451840576171875,0.7418394088745117,1.301126480102539,3.5186092853546143
1713313080991375600,0.461375732421875,-3.353321075439453,-0.276608943939209,-1.0434513092041016
1713313081000910600,0.47091064453125,2.232924461364746,0.39183712005615234,4.920383453369141
1713313081010445600,0.480445556640625,-0.7256975173950195,0.4975321292877197,2.904566764831543
1713313081019980500,0.48998046875,1.179997444152832,1.0232899188995361,2.0799806118011475
1713313081029515500,0.499515625,0.7622213363647461,0.9806833267211914,-0.4062578082084656
1713313081039050500,0.509050537109375,-1.841970443725586,1.0523130893707275,-1.573553204536438
1713313081048585500,0.51858544921875,-2.3396387100219727,0.9187071323394775,-2.1963069438934326
1713313081058120400,0.528120361328125,-3.518209457397461,0.7447400093078613,-2.712425708770752
1713313081067655400,0.537655517578125,-3.7728519439697266,0.45511531829833984,-2.2224984169006348
1713313081077190700,0.547190673828125,-3.4073171615600586,0.38176870346069336,-1.0038642883300781
1713313081086725400,0.556725341796875,-2.6777215003967285,0.45951175689697266,-0.2206113636493683
1713313081096260400,0.56626025390625,-1.626450538635254,0.7103464603424072,1.6380211114883423
1713313081105795300,0.57579541015625,-1.0341777801513672,1.2772083282470703,3.3375439643859863
1713313081115330600,0.58533056640625,-0.922123908996582,1.4210031032562256,1.5033323764801025
1713313081124865500,0.594865478515625,-0.7050962448120117,0.9469680786132812,-0.2407454550266266
1713313081134400500,0.604400390625,0.19711017608642578,0.39937567710876465,-1.6854201555252075
1713313081143935200,0.613935302734375,1.655552864074707,0.3415536880493164,-2.2686243057250977
1713313081153470200,0.62347021484375,2.239109992980957,0.4725921154022217,-3.0725855827331543
1713313081163005400,0.63300537109375,2.251474380493164,0.5840437412261963,-2.867292642593384
1713313081172540400,0.64254052734375,1.8134727478027344,0.6827349662780762,-2.234403610229492
1713313081182075400,0.652075439453125,0.7936105728149414,0.5501093864440918,-1.7174924612045288
1713313081191610400,0.6616103515625,0.7534866333007812,-0.03168606758117676,-1.6799089908599854
1713313081201145300,0.671145263671875,0.41466522216796875,-0.6544723510742188,-0.4667509198188782
1713313081210680300,0.680680419921875,-0.1417531967163086,-1.347374677658081,0.5995923280715942
1713313081220215300,0.69021533203125,-0.7929010391235352,-1.620286226272583,0.446069598197937
1713313081229750300,0.699750244140625,-1.1408567428588867,-1.8349101543426514,0.5097295045852661
1713313081239285200,0.70928515625,-1.1766223907470703,-2.1818599700927734,0.492514967918396
1713313081248820200,0.7188203125,-0.5473947525024414,-2.1245646476745605,-0.21586692333221436
1713313081258355200,0.728355224609375,0.4102449417114258,-1.8620812892913818,-1.1913509368896484
1713313081267890200,0.73789013671875,1.4883460998535156,-1.7790851593017578,-2.5121355056762695
1713313081277425200,0.747425048828125,2.9692554473876953,-1.9116084575653076,-3.2536325454711914
1713313081286960000,0.756960205078125,4.593537330627441,-2.4769370555877686,-2.9929580688476562
1713313081296495000,0.7664951171875,3.9340171813964844,-3.2239766120910645,-0.9888155460357666
1713313081306030000,0.776030029296875,3.539931297302246,-3.8983469009399414,0.7507154941558838
1713313081315565000,0.78556494140625,2.788851261138916,-4.349221229553223,2.0949008464813232
1713313081325100000,0.79510009765625,2.1266751289367676,-4.838674545288086,2.3449528217315674
1713313081334635000,0.804635009765625,1.9354743957519531,-5.367978096008301,1.8299484252929688
1713313081344170000,0.814169921875,1.7141776084899902,-5.458001136779785,1.6517581939697266
1713313081353705000,0.823705078125,1.1731791496276855,-5.629453182220459,1.5270166397094727
1713313081363240000,0.833239990234375,0.5420503616333008,-5.746614933013916,1.8897373676300049
1713313081372775000,0.84277490234375,0.20037102699279785,-5.677440166473389,1.887244701385498
1713313081382310100,0.85231005859375,0.780719518661499,-5.435562610626221,1.5939784049987793
1713313081391844900,0.861844970703125,1.9130470752716064,-5.077303886413574,1.2552618980407715
1713313081401379800,0.8713798828125,2.686673879623413,-5.041707992553711,1.1941847801208496
1713313081410914800,0.880914794921875,3.1716465950012207,-5.219104766845703,0.8314690589904785
1713313081420449800,0.89044970703125,3.586606979370117,-5.247809886932373,0.6101193428039551
1713313081429985000,0.899985107421875,3.2694382667541504,-5.033145904541016,0.20261526107788086
1713313081439520000,0.90952001953125,2.5936832427978516,-4.562054634094238,0.16657400131225586
1713313081449055000,0.919054931640625,1.7020292282104492,-3.8294849395751953,0.10017633438110352
1713313081458589700,0.928589599609375,0.8784288167953491,-2.7631630897521973,0.12898635864257812
1713313081468125000,0.938125,0.2669737935066223,-1.6490278244018555,-0.4441385269165039
1713313081477660000,0.947659912109375,0.1621394157409668,-0.44442033767700195,-1.3722739219665527
1713313081487195000,0.95719482421875,-0.16257071495056152,0.3283696174621582,-0.9879789352416992
1713313081496729900,0.966729736328125,-0.8425488471984863,1.5631442070007324,-0.6532325744628906
1713313081506264800,0.976264892578125,-1.5281028747558594,3.0062437057495117,-0.9395475387573242
1713313081515799800,0.9857998046875,-1.9764941930770874,4.463016510009766,-1.416649341583252
1713313081525334800,0.995334716796875,-2.234700918197632,6.24493408203125,-2.8128485679626465
1713313081534869800,1.004869873046875,-2.228027105331421,7.387596130371094,-4.021230697631836
1713313081544404700,1.01440478515625,-2.0094404220581055,7.946454048156738,-4.173911094665527
1713313081553939700,1.023939697265625,-1.2740243673324585,8.669158935546875,-3.716524600982666
1713313081563474700,1.033474609375,-0.6351077556610107,9.057281494140625,-3.1344070434570312
1713313081573009700,1.043009765625,-0.32335901260375977,8.92276382446289,-2.6096229553222656
1713313081582544600,1.052544677734375,0.036895155906677246,8.717859268188477,-2.159773826599121
1713313081592079600,1.06207958984375,0.43358922004699707,8.43482780456543,-1.5033187866210938
1713313081601614600,1.071614501953125,0.9924755096435547,8.230932235717773,-0.7472543716430664
1713313081611149600,1.081149658203125,-4.967136859893799,8.699462890625,3.618396282196045
1713313081620684500,1.0906845703125,-9.191712379455566,9.176292419433594,6.058258056640625
1713313081630219500,1.100219482421875,-13.632911682128906,9.01864242553711,7.592038631439209
1713313081639754500,1.10975439453125,-21.303754806518555,9.589042663574219,9.40673542022705
1713313081649289500,1.11928955078125,-23.178619384765625,10.926416397094727,7.978928565979004
1713313081658824400,1.128824462890625,-14.814623832702637,9.845888137817383,5.133530616760254
1713313081668359400,1.138359375,-5.510238170623779,6.764067649841309,3.524052619934082
1713313081677894400,1.147894287109375,2.1563429832458496,3.733635902404785,3.096085548400879
1713313081687429400,1.157429443359375,6.968912601470947,2.627676010131836,3.4637327194213867
1713313081696964600,1.166964599609375,8.531005859375,2.412349224090576,4.132805347442627
1713313081706499600,1.17649951171875,7.75497579574585,2.2901902198791504,4.412113189697266
1713313081716034300,1.186034423828125,5.903676986694336,1.8638105392456055,4.046052932739258
1713313081725569300,1.1955693359375,3.944772720336914,0.7897887229919434,3.400716781616211
1713313081735104500,1.2051044921875,1.725543737411499,0.21961545944213867,2.698209762573242
1713313081744639500,1.214639404296875,-0.8461942672729492,-0.09457588195800781,2.1283721923828125
1713313081754174500,1.224174560546875,-2.7279233932495117,0.004257678985595703,2.230821132659912
1713313081763709400,1.23370947265625,-3.7762794494628906,0.18810367584228516,1.9163661003112793
1713313081773244400,1.243244384765625,-3.5973310470581055,0.15453577041625977,2.114588737487793
1713313081782779400,1.252779296875,-1.8955291509628296,0.08943319320678711,2.223642349243164
1713313081792314400,1.262314453125,-0.5463204383850098,-0.18377065658569336,1.8190522193908691
1713313081801849300,1.271849365234375,0.7559475898742676,-0.5975794792175293,1.6801557540893555
1713313081811384300,1.28138427734375,1.5262556076049805,-0.8331279754638672,1.3115777969360352
1713313081820919300,1.290919189453125,1.0026466846466064,-0.9067039489746094,0.8454933166503906
1713313081830454300,1.300454345703125,0.25367414951324463,-0.4388742446899414,0.4222135543823242
1713313081839989200,1.3099892578125,-1.0975375175476074,-0.17447137832641602,0.49952220916748047
1713313081849524200,1.319524169921875,-2.155860185623169,-0.06334161758422852,0.882502555847168
1713313081859059200,1.32905908203125,-2.485671281814575,0.1948261260986328,1.1893558502197266
1713313081868594200,1.33859423828125,-2.34918212890625,0.5244746208190918,1.1470413208007812
1713313081878129200,1.348129150390625,-1.9792639017105103,0.8657059669494629,1.3876047134399414
1713313081887664000,1.3576640625,-1.1683335304260254,1.068216323852539,1.5988235473632812
1713313081897199000,1.36719921875,-0.30040037631988525,1.3538265228271484,1.6813640594482422
1713313081906734000,1.376734130859375,0.33326804637908936,1.5697946548461914,1.7590432167053223
1713313081916269000,1.38626904296875,0.6162676811218262,1.8376798629760742,1.8219199180603027
1713313081925804000,1.395803955078125,0.4752845764160156,1.956611156463623,1.8675308227539062
1713313081935339000,1.405339111328125,-0.09309101104736328,2.0582618713378906,1.869518756866455
1713313081944874000,1.4148740234375,-0.7677384614944458,2.241191864013672,1.7110624313354492
1713313081954409000,1.424408935546875,-1.259663462638855,2.505807399749756,1.451319694519043
1713313081963944200,1.433944091796875,-1.3684312105178833,2.6117334365844727,1.2051968574523926
1713313081973479000,1.44347900390625,-1.231400728225708,2.411261558532715,1.4320058822631836
1713313081983014000,1.453013916015625,-1.0046230554580688,2.0241594314575195,2.023681163787842
1713313081992548900,1.462548828125,-0.9733918905258179,1.6717710494995117,2.6042661666870117
1713313082002084000,1.472083984375,-1.0124927759170532,1.3907928466796875,2.9415817260742188
1713313082011619000,1.481619140625,-1.088092565536499,1.0913867950439453,3.0769753456115723
1713313082021154000,1.491154052734375,-1.2047309875488281,0.9132328033447266,3.0738320350646973
1713313082030689000,1.50068896484375,-1.3123064041137695,0.864288330078125,2.9076576232910156
1713313082040224000,1.51022412109375,-1.4161425828933716,0.8676662445068359,2.71917724609375
1713313082049759000,1.519759033203125,-1.5906879901885986,0.8673553466796875,2.455777168273926
1713313082059294000,1.5292939453125,-1.7577444314956665,0.8361492156982422,2.3068675994873047
1713313082068829000,1.538828857421875,-2.048616886138916,0.7358126640319824,2.3161497116088867
1713313082078364000,1.548364013671875,-2.309511661529541,0.5918698310852051,2.2944421768188477
1713313082087899000,1.55789892578125,-2.5661392211914062,0.541597843170166,2.154478073120117
1713313082097433900,1.567433837890625,-2.791351079940796,0.47565460205078125,2.07951021194458
1713313082106968800,1.57696875,-2.6260972023010254,0.4919095039367676,2.123222827911377
1713313082116503800,1.58650390625,-2.633880376815796,0.14884090423583984,0.9747152328491211
1713313082126038800,1.596038818359375,-2.112419605255127,0.2731471061706543,0.6370143890380859
1713313082135573800,1.60557373046875,-1.9300702810287476,0.49754786491394043,-0.1682910919189453
1713313082145108700,1.615108642578125,-1.9658536911010742,1.11869215965271,-1.070779800415039
1713313082154643700,1.624643798828125,-2.5875632762908936,1.6270642280578613,-2.286831855773926
1713313082164178700,1.6341787109375,-3.411262035369873,2.362166166305542,-2.5167884826660156
1713313082173713700,1.643713623046875,-3.9031009674072266,2.8892617225646973,-2.4831466674804688
1713313082183248600,1.65324853515625,-3.3051862716674805,2.8859071731567383,-2.022658348083496
1713313082192783600,1.66278369140625,-1.0982224941253662,2.4468536376953125,-1.0572900772094727
1713313082202318600,1.672318603515625,1.3198752403259277,1.8794002532958984,-0.17597007751464844
1713313082211853600,1.681853515625,2.5677056312561035,1.4891858100891113,0.0825796127319336
1713313082221388500,1.691388427734375,3.0480518341064453,1.3128912448883057,-0.36682605743408203
1713313082230923800,1.700923828125,3.3932628631591797,1.0506837368011475,-0.8290510177612305
1713313082240458500,1.71045849609375,3.1801321506500244,0.6258070468902588,-0.7411909103393555
1713313082249993500,1.719993408203125,2.580732822418213,0.09552454948425293,0.06933307647705078
1713313082259528400,1.729528564453125,0.8541582226753235,-0.8294334411621094,-1.1867761611938477
1713313082269063700,1.739063720703125,-0.14630043506622314,-1.1066627502441406,-0.1556262969970703
1713313082278598700,1.7485986328125,-1.129014492034912,-1.136526107788086,-0.5774669647216797
1713313082288133600,1.758133544921875,-1.201040506362915,-0.7245182991027832,-0.39632225036621094
1713313082297668600,1.767668701171875,-0.9744536280632019,-0.1176755428314209,-0.5141572952270508
1713313082307203600,1.77720361328125,-0.5913715362548828,1.0210974216461182,-0.6965417861938477
1713313082316738600,1.786738525390625,-0.5631764531135559,2.4470391273498535,-0.5374155044555664
1713313082326273500,1.7962734375,-0.8855974674224854,3.879526138305664,-0.7729415893554688
1713313082335808500,1.80580859375,-1.2236920595169067,5.473852634429932,-1.7042417526245117
1713313082345343500,1.815343505859375,-1.5367977619171143,6.710404396057129,-3.4962406158447266
1713313082354878500,1.82487841796875,-1.3360035419464111,8.13457202911377,-4.07737922668457
1713313082364413400,1.834413330078125,-1.1851062774658203,8.653128623962402,-4.318016052246094
1713313082373948400,1.843948486328125,-1.5804733037948608,8.41533374786377,-3.6559371948242188
1713313082383483400,1.8534833984375,-1.8379799127578735,8.009135246276855,-2.9372262954711914
1713313082393018400,1.863018310546875,-1.894502878189087,7.742934703826904,-2.719646453857422
1713313082402553300,1.87255322265625,-1.4678369760513306,8.009071350097656,-2.9125919342041016
1713313082412088300,1.88208837890625,-1.1478277444839478,7.3811798095703125,-2.7373743057250977
1713313082421623300,1.891623291015625,-1.071528673171997,7.091889381408691,-1.080301284790039
1713313082431158300,1.901158203125,-1.5748372077941895,5.941708564758301,-1.2523374557495117
1713313082440693200,1.910693359375,-1.834903359413147,4.9316511154174805,0.01903533935546875
1713313082450228200,1.920228271484375,-1.5148003101348877,3.918757438659668,0.8957357406616211
1713313082459763500,1.929763427734375,-0.12128892540931702,2.9600024223327637,1.4352283477783203
1713313082469298200,1.939298095703125,1.8906053304672241,2.444629192352295,1.2686176300048828
1713313082478833200,1.948833251953125,3.4440324306488037,1.6714954376220703,1.4047117233276367
1713313082488368000,1.9583681640625,3.800196647644043,0.8270928859710693,1.8741703033447266
1713313082497903400,1.9679033203125,2.9518682956695557,0.23633027076721191,2.281855583190918
1713313082507438300,1.977438232421875,1.0774719715118408,0.23802828788757324,2.159634590148926
1713313082516973300,1.986973388671875,-0.10803133249282837,0.77882981300354,1.5026235580444336
1713313082526508300,1.99650830078125,-0.5876216888427734,1.2412199974060059,1.3341255187988281
1713313082536043300,2.006043212890625,-0.24852287769317627,0.8374614715576172,1.4259061813354492
1713313082545578200,2.015578125,1.7150928974151611,0.038089752197265625,2.6558189392089844
1713313082555113200,2.02511328125,2.7474145889282227,-1.3460414409637451,3.4685287475585938
1713313082564648200,2.034648193359375,1.6907832622528076,-2.644794225692749,5.140855312347412
1713313082574183200,2.04418310546875,0.5288660526275635,-3.6299359798431396,6.7864885330200195
1713313082583718100,2.05371826171875,0.15600547194480896,-4.2465500831604,7.450628280639648
1713313082593253000,2.063253173828125,-0.1630324423313141,-4.883246421813965,7.5366010665893555
1713313082602788000,2.0727880859375,-0.4798884987831116,-5.568631172180176,7.607229232788086
1713313082612323000,2.082322998046875,-0.7643834352493286,-6.045456886291504,7.533888816833496
1713313082621858000,2.091858154296875,-0.9529939889907837,-6.130199432373047,7.58748722076416
1713313082631393000,2.10139306640625,-0.21278364956378937,-6.055774688720703,7.291828632354736
1713313082640928000,2.110927978515625,0.8163883686065674,-6.91010856628418,6.026102066040039
1713313082650463000,2.120462890625,1.2140583992004395,-7.699398040771484,5.347237586975098
1713313082659998000,2.129998046875,0.8365136384963989,-7.730079650878906,4.784520149230957
1713313082669533000,2.139532958984375,1.0328294038772583,-6.598723888397217,3.429485321044922
1713313082679068200,2.149068115234375,1.6514699459075928,-5.015442371368408,1.2221307754516602
1713313082688603100,2.15860302734375,-0.07695823907852173,-3.082098960876465,-0.6301984786987305
1713313082698138000,2.16813818359375,-2.2460198402404785,-0.4775071144104004,-1.8397932052612305
1713313082707673000,2.177673095703125,-3.96290922164917,1.2706849575042725,-4.2765045166015625
1713313082717208000,2.1872080078125,-5.1826701164245605,2.360189199447632,-5.182844161987305
1713313082726743000,2.196742919921875,-4.0807318687438965,3.40578556060791,-8.484131813049316
1713313082736278000,2.206278076171875,-1.290860652923584,5.029908657073975,-11.19184684753418
1713313082745813000,2.21581298828125,1.0041680335998535,6.553500175476074,-14.0020112991333
1713313082755348000,2.225347900390625,1.5439531803131104,6.968487739562988,-14.983720779418945
1713313082764883000,2.234883056640625,2.003164529800415,7.459938049316406,-15.419707298278809
1713313082774418000,2.24441796875,2.1383469104766846,7.963982582092285,-14.665584564208984
1713313082783953000,2.253952880859375,0.3117549419403076,8.187610626220703,-12.724607467651367
1713313082793488000,2.26348779296875,-1.8074884414672852,8.019676208496094,-9.967461585998535
1713313082803022800,2.27302294921875,-2.8647589683532715,7.334322929382324,-7.9122161865234375
1713313082812557800,2.282557861328125,-4.012119293212891,5.9301958084106445,-5.986572265625
1713313082822093000,2.292093017578125,-5.030901908874512,4.58514404296875,-3.3047075271606445
1713313082831627800,2.301627685546875,-6.609726428985596,2.6036486625671387,-0.45189952850341797
1713313082841162800,2.311162841796875,-6.505112171173096,0.7684555053710938,2.017122268676758
1713313082850697700,2.32069775390625,-5.386327266693115,-0.7371139526367188,4.343070030212402
1713313082860232700,2.330232666015625,-3.810487747192383,-1.8551545143127441,6.065585136413574
1713313082869768000,2.339767822265625,-2.114283561706543,-2.6773784160614014,6.791350364685059
1713313082879303000,2.349302978515625,-0.2464585304260254,-3.21109676361084,6.682523727416992
1713313082888838000,2.358837890625,1.7239130735397339,-3.684582233428955,6.368607521057129
1713313082898372900,2.368372802734375,3.3942604064941406,-4.435530185699463,6.69012975692749
1713313082907907800,2.377907958984375,3.4336390495300293,-5.115753173828125,7.224900245666504
1713313082917442800,2.38744287109375,2.016364574432373,-5.677144527435303,7.829121112823486
1713313082926977800,2.396977783203125,0.418733686208725,-6.013589859008789,8.108330726623535
1713313082936512800,2.4065126953125,-0.1380084753036499,-6.264897346496582,8.109247207641602
1713313082946047700,2.4160478515625,0.08744001388549805,-6.241355895996094,7.984400749206543
1713313082955582700,2.425582763671875,0.2897668778896332,-5.921148300170898,7.7607598304748535
1713313082965117700,2.43511767578125,-0.11482137441635132,-5.554463863372803,7.767918586730957
1713313082974652700,2.444652587890625,-1.081185221672058,-5.176745414733887,7.928101539611816
1713313082984187600,2.454187744140625,-1.8708875179290771,-4.644090175628662,8.408369064331055
1713313082993722600,2.46372265625,-1.713241457939148,-4.24554443359375,9.190115928649902
1713313083003257600,2.473257568359375,-1.0739820003509521,-4.222108840942383,9.02678394317627
1713313083012792800,2.482792724609375,0.05755043029785156,-3.841273069381714,8.13798999786377
1713313083022327800,2.492327880859375,0.21820223331451416,-3.0863289833068848,5.983461856842041
1713313083031862800,2.50186279296875,4.362575054168701,-3.791207790374756,2.7872323989868164
1713313083041397800,2.511397705078125,6.889456748962402,-3.6697540283203125,-0.8121757507324219
1713313083050932700,2.5209326171875,5.638005256652832,-1.2686700820922852,-4.145918846130371
1713313083060467700,2.5304677734375,8.868833541870117,-0.6093611717224121,-7.322803497314453
1713313083070002700,2.540002685546875,7.384999752044678,-1.3512287139892578,-7.978201866149902
1713313083079537700,2.54953759765625,-0.19327151775360107,-1.900742530822754,-11.027918815612793
1713313083089072600,2.55907275390625,-4.09306001663208,0.8939447402954102,-13.36527156829834
1713313083098607600,2.568607666015625,-4.658111572265625,2.810883045196533,-11.25913143157959
1713313083108142600,2.578142578125,-7.745339393615723,2.599334239959717,-8.382096290588379
1713313083117677600,2.587677490234375,-6.823962211608887,2.856260299682617,-5.7605133056640625
1713313083127212500,2.597212646484375,-6.257155895233154,3.7982821464538574,-3.9752960205078125
1713313083136747500,2.60674755859375,-6.842849254608154,5.073582649230957,-4.0893402099609375
1713313083146282500,2.616282470703125,-5.521173000335693,6.111611366271973,-4.614799499511719
1713313083155817700,2.625817626953125,-2.743314027786255,6.864510536193848,-5.147202491760254
1713313083165352700,2.635352783203125,-0.43118345737457275,7.323668479919434,-5.802634239196777
1713313083174887700,2.6448876953125,1.4423731565475464,7.925122261047363,-6.375908851623535
1713313083184422700,2.654422607421875,2.0044097900390625,8.641165733337402,-6.160041809082031
1713313083193957600,2.66395751953125,1.9358949661254883,8.678690910339355,-4.162796974182129
1713313083203492600,2.67349267578125,1.9779959917068481,7.860964775085449,-1.2570934295654297
1713313083213027600,2.683027587890625,1.650443434715271,6.704209804534912,1.5669755935668945
1713313083222562600,2.6925625,1.5528559684753418,6.140362739562988,3.1251983642578125
1713313083232097500,2.70209765625,1.2690587043762207,5.736868858337402,3.630610466003418
1713313083241632500,2.711632568359375,0.7702872157096863,4.863457202911377,3.5583057403564453
1713313083251167700,2.721167724609375,0.2118217647075653,3.382779121398926,3.4804625511169434
1713313083260702700,2.73070263671875,0.05245758593082428,1.527876377105713,3.378912925720215
1713313083270237700,2.74023779296875,0.6102515459060669,-0.05367469787597656,3.1630635261535645
1713313083279772400,2.7497724609375,1.9339301586151123,-1.7804617881774902,3.2946853637695312
1713313083289307400,2.759307373046875,3.5619900226593018,-3.25304913520813,3.672534942626953
1713313083298842600,2.768842529296875,4.277705669403076,-4.3792548179626465,4.118215084075928
1713313083308377600,2.778377685546875,4.403737545013428,-5.090396881103516,5.284621238708496
1713313083317912600,2.78791259765625,3.8315839767456055,-5.819004058837891,6.6624321937561035
1713313083327447600,2.797447509765625,2.7739479541778564,-6.052822113037109,7.394112586975098
1713313083336982500,2.806982421875,1.5505088567733765,-6.3467817306518555,7.483941078186035
1713313083346517500,2.816517578125,0.3902645707130432,-6.8162689208984375,7.143908500671387
1713313083356052500,2.826052490234375,-0.4166184961795807,-7.047964096069336,6.244356632232666
1713313083365587500,2.83558740234375,-0.32496264576911926,-6.806025981903076,4.955203056335449
1713313083375122400,2.845122314453125,0.037542909383773804,-6.519354820251465,3.191357135772705
1713313083384657400,2.854657470703125,-0.4663991332054138,-6.268707752227783,1.9554119110107422
1713313083394192600,2.864192626953125,-1.6823530197143555,-6.077591896057129,2.1454153060913086
1713313083403727400,2.873727294921875,-3.922294855117798,-6.186649799346924,1.7306032180786133
1713313083413262300,2.883262451171875,-3.6286568641662598,-6.9967827796936035,1.0788602828979492
1713313083422797300,2.89279736328125,4.852729797363281,-7.29261589050293,-0.3978395462036133
1713313083432332300,2.902332275390625,12.5504732131958,-6.584483623504639,-0.44643688201904297
1713313083441867500,2.911867431640625,13.28807258605957,-5.116786479949951,-1.1210803985595703
1713313083451402500,2.921402587890625,9.908738136291504,-2.892538070678711,-1.7656822204589844
1713313083460937500,2.9309375,-1.5935277938842773,-2.124969482421875,-2.533538818359375
1713313083470472400,2.940472412109375,-17.219318389892578,-0.3986659049987793,-9.206869125366211
1713313083480007400,2.95000732421875,-18.705102920532227,5.5302300453186035,-19.5789794921875
1713313083489542400,2.95954248046875,-8.567005157470703,9.214184761047363,-24.059246063232422
1713313083499077400,2.969077392578125,0.4201570153236389,8.020483016967773,-20.931608200073242
1713313083508612400,2.9786123046875,4.110796928405762,6.4366960525512695,-15.823974609375
1713313083518147300,2.988147216796875,3.774671792984009,5.976637840270996,-10.002399444580078
1713313083527682300,2.997682373046875,1.3435094356536865,5.491453170776367,-6.714312553405762
1713313083537217300,3.00721728515625,-1.9421288967132568,5.440491199493408,-4.955723762512207
1713313083546752300,3.016752197265625,-5.2800445556640625,5.3404669761657715,-3.939713478088379
1713313083556287200,3.026287353515625,-6.114844799041748,4.637069225311279,-2.0720901489257812
1713313083565822200,3.035822265625,-5.0627264976501465,3.413214683532715,-0.17728328704833984
1713313083575357200,3.045357177734375,-3.753312587738037,1.9566941261291504,1.6440415382385254
1713313083584892200,3.05489208984375,-2.3421757221221924,0.667356014251709,3.5604348182678223
1713313083594427100,3.06442724609375,-0.5725616216659546,-0.6372804641723633,5.035849094390869
1713313083603962000,3.073962158203125,1.135258436203003,-1.9533863067626953,5.780594825744629
1713313083613497000,3.0834970703125,2.7576746940612793,-3.0727577209472656,6.444857597351074
1713313083623032300,3.0930322265625,3.642106771469116,-3.9706344604492188,7.635893821716309
1713313083632567300,3.1025673828125,3.4252452850341797,-4.815098762512207,9.032343864440918
1713313083642102300,3.112102294921875,2.1841516494750977,-5.709437370300293,9.974246978759766
1713313083651637200,3.12163720703125,1.59987473487854,-6.702776908874512,10.350152969360352
1713313083661172200,3.131172119140625,0.8260354995727539,-7.488897323608398,10.329324722290039
1713313083670707200,3.140707275390625,0.9233564138412476,-7.831505298614502,10.008899688720703
1713313083680242200,3.1502421875,0.8442776203155518,-7.748335838317871,9.256828308105469
1713313083689777200,3.159777099609375,0.3432413339614868,-7.113968849182129,8.25432300567627
1713313083699312000,3.16931201171875,-0.418987512588501,-6.117140293121338,7.57656717300415
1713313083708847000,3.17884716796875,-0.6786064505577087,-5.52138090133667,6.901391983032227
1713313083718382000,3.188382080078125,-0.5424492359161377,-5.242066860198975,6.55493688583374
1713313083727917000,3.1979169921875,0.801739513874054,-5.001468658447266,6.387475490570068
1713313083737452000,3.2074521484375,1.8107631206512451,-4.481480121612549,5.4515299797058105
1713313083746987000,3.216987060546875,2.5215182304382324,-3.948821783065796,3.9424705505371094
1713313083756522000,3.22652197265625,2.157435655593872,-3.349083185195923,2.3179211616516113
1713313083766057200,3.23605712890625,3.1244397163391113,-3.273336410522461,0.19609546661376953
1713313083775592200,3.24559228515625,4.242923259735107,-1.914903163909912,-2.004854202270508
1713313083785127000,3.255126953125,5.637563228607178,2.5313143730163574,-4.421618461608887
1713313083794662000,3.264661865234375,9.714097023010254,4.949402332305908,-5.766529560089111
1713313083804197000,3.274197021484375,11.029232025146484,2.9923996925354004,-4.2780561447143555
1713313083813732000,3.283732177734375,3.851015090942383,2.218992233276367,-7.737868309020996
1713313083823267000,3.29326708984375,-4.238978385925293,2.0369129180908203,-14.744817733764648
1713313083832802000,3.302802001953125,-10.576160430908203,3.2475833892822266,-16.978679656982422
1713313083842337000,3.3123369140625,-13.546056747436523,7.068665027618408,-14.656063079833984
1713313083851872000,3.3218720703125,-11.584972381591797,7.7893548011779785,-11.895196914672852
1713313083861407000,3.331406982421875,-8.485123634338379,7.520141124725342,-8.737239837646484
1713313083870942000,3.34094189453125,-4.701738357543945,6.672649383544922,-5.533939838409424
1713313083880477000,3.350476806640625,0.4340707063674927,5.669947147369385,-4.85929012298584
1713313083890012000,3.360011962890625,5.606871128082275,5.373571872711182,-4.371126651763916
1713313083899547000,3.369546875,5.737650394439697,5.644885063171387,-3.0663652420043945
1713313083909081900,3.379081787109375,3.083378791809082,5.600735187530518,-2.0606536865234375
1713313083918616800,3.388616943359375,-0.036282893270254135,5.714180946350098,-0.7361516952514648
1713313083928151800,3.39815185546875,-2.026357650756836,5.441874980926514,1.1319522857666016
1713313083937686800,3.407686767578125,-2.7555294036865234,4.344645023345947,3.0043845176696777
1713313083947222000,3.417221923828125,-2.0176780223846436,2.781445026397705,3.9400463104248047
1713313083956757000,3.426757080078125,-0.7763510346412659,1.0823731422424316,4.221295356750488
1713313083966292000,3.4362919921875,-0.5649464130401611,-0.3913750648498535,3.8643784523010254
1713313083975827000,3.445826904296875,-1.2022380828857422,-1.5824518203735352,3.6298179626464844
1713313083985362000,3.45536181640625,-0.9986613392829895,-2.739499092102051,3.3900179862976074
1713313083994897000,3.46489697265625,-0.04147213697433472,-3.8938798904418945,3.2971038818359375
1713313084004432000,3.474431884765625,0.9436384439468384,-5.180056571960449,3.750115394592285
1713313084013966800,3.483966796875,2.704831123352051,-6.5544233322143555,4.710926055908203
1713313084023501800,3.493501708984375,4.128432273864746,-7.713122367858887,5.79195499420166
1713313084033036800,3.503036865234375,4.020253658294678,-8.324101448059082,6.520538806915283
1713313084042571800,3.51257177734375,2.9290201663970947,-8.252972602844238,6.941465854644775
1713313084052106800,3.522106689453125,1.7208266258239746,-8.012927055358887,7.026960849761963
1713313084061641700,3.531641845703125,0.8997547030448914,-7.919165134429932,6.9324421882629395
1713313084071176700,3.5411767578125,0.2114771008491516,-7.868635654449463,6.039027214050293
1713313084080711700,3.550711669921875,0.4315602779388428,-7.943387031555176,5.0293378829956055
1713313084090247000,3.560246826171875,1.1106479167938232,-7.982438087463379,3.9101641178131104
1713313084099782000,3.569781982421875,1.7880878448486328,-7.7820329666137695,3.1322221755981445
1713313084109316900,3.57931689453125,1.4345707893371582,-7.273519515991211,2.2066712379455566
1713313084118851800,3.588851806640625,-0.31991517543792725,-6.5734148025512695,1.0590019226074219
1713313084128386800,3.59838671875,-1.676084041595459,-6.06772518157959,-0.8858580589294434
1713313084137921800,3.607921875,3.8580360412597656,-5.346151828765869,-2.7513341903686523
1713313084147456800,3.617456787109375,10.937864303588867,-3.5791845321655273,-2.47847318649292
1713313084156991700,3.62699169921875,11.129464149475098,0.4314560890197754,-1.0037894248962402
1713313084166526700,3.636526611328125,5.904699802398682,3.116604804992676,-3.326021671295166
1713313084176061700,3.646061767578125,-3.7464542388916016,3.201951503753662,-8.161081314086914
1713313084185596700,3.6555966796875,-15.386726379394531,2.79425048828125,-12.953631401062012
1713313084195131600,3.665131591796875,-14.432050704956055,7.03671932220459,-20.62752914428711
1713313084204666600,3.67466650390625,-7.878040313720703,10.398155212402344,-23.89784812927246
1713313084214201600,3.68420166015625,-1.362654209136963,8.263188362121582,-19.192676544189453
1713313084223736600,3.693736572265625,2.7770111560821533,5.58146858215332,-12.402835845947266
1713313084233271800,3.703271728515625,4.8672661781311035,5.042386531829834,-7.080097198486328
1713313084242806800,3.712806884765625,3.1066675186157227,4.624207496643066,-2.720137596130371
1713313084252341500,3.722341552734375,-0.16674929857254028,4.326376914978027,0.15724468231201172
1713313084261876500,3.73187646484375,-3.977290391921997,4.4247965812683105,1.820054054260254
1713313084271411500,3.741411376953125,-5.199192047119141,4.955974102020264,1.5188732147216797
1713313084280946700,3.75094677734375,-5.358617305755615,5.004621505737305,0.8066678047180176
1713313084290481700,3.760481689453125,-4.859246730804443,4.4883198738098145,0.2801246643066406
1713313084300016600,3.7700166015625,-3.999366283416748,3.765777587890625,0.6357975006103516
1713313084309551600,3.779551513671875,-3.1334800720214844,3.0197019577026367,1.4385466575622559
1713313084319086600,3.789086669921875,-2.246933937072754,2.118317127227783,2.473933696746826
1713313084328621600,3.79862158203125,-0.6949794292449951,0.8526921272277832,3.964592456817627
1713313084338156500,3.808156494140625,1.6636710166931152,-0.7325983047485352,5.3856024742126465
1713313084347691500,3.81769140625,3.314823627471924,-2.306544303894043,6.543788433074951
1713313084357226500,3.8272265625,3.7015793323516846,-3.9171018600463867,7.785038471221924
1713313084366761500,3.836761474609375,2.7035622596740723,-5.741460800170898,8.611152648925781
1713313084376296400,3.84629638671875,1.6524702310562134,-7.089612007141113,8.941767692565918
1713313084385831400,3.85583154296875,1.2653390169143677,-7.94656229019165,8.861738204956055
1713313084395366400,3.865366455078125,1.13894522190094,-8.395740509033203,8.389006614685059
1713313084404901400,3.8749013671875,1.063483715057373,-8.585784912109375,8.032649040222168
1713313084414436400,3.884436279296875,0.9432744979858398,-8.736104011535645,7.988799571990967
1713313084423971600,3.8939716796875,0.38370782136917114,-8.488134384155273,7.9362921714782715
1713313084433506600,3.903506591796875,-0.21541166305541992,-7.890660762786865,7.990933418273926
1713313084443041500,3.91304150390625,-0.5500045418739319,-7.237773418426514,7.932726860046387
1713313084452576500,3.922576416015625,-0.3295435309410095,-6.675955772399902,7.585975646972656
1713313084462111500,3.932111572265625,0.48490792512893677,-5.873591899871826,6.572637557983398
1713313084471646500,3.941646484375,1.1925280094146729,-4.6418304443359375,4.862671852111816
1713313084481181400,3.951181396484375,2.1300506591796875,-3.811117172241211,2.7515220642089844
1713313084490716400,3.96071630859375,1.6223437786102295,-3.11553955078125,-0.5137629508972168
1713313084500251400,3.97025146484375,2.9171414375305176,0.8450899124145508,-6.156428337097168
1713313084509786400,3.979786376953125,9.7785062789917,3.552370071411133,-11.140545845031738
1713313084519321300,3.9893212890625,12.468122482299805,0.581326961517334,-10.94696044921875
1713313084528856300,3.998856201171875,5.992007732391357,-1.1000432968139648,-10.03754997253418
1713313084538391300,4.008391357421875,-6.383625507354736,2.1996254920959473,-12.613295555114746
1713313084547926300,4.01792626953125,-9.328154563903809,5.271798610687256,-12.976344108581543
1713313084557461200,4.027461181640625,-10.546391487121582,9.961215019226074,-13.622509956359863
1713313084566996500,4.03699658203125,-9.742959976196289,12.019734382629395,-12.22851848602295
1713313084576531500,4.046531494140625,-8.302526473999023,12.20412826538086,-8.64465618133545
1713313084586066400,4.05606640625,-6.500680923461914,10.8116455078125,-5.932730674743652
1713313084595601400,4.065601318359375,-2.9824087619781494,10.415119171142578,-5.377503395080566
1713313084605136400,4.075136474609375,1.1745920181274414,9.968936920166016,-4.880517959594727
1713313084614671400,4.08467138671875,2.251582622528076,9.35051155090332,-2.741091728210449
1713313084624206300,4.094206298828125,2.4148945808410645,8.433883666992188,-0.4866142272949219
1713313084633741300,4.1037412109375,2.625713348388672,7.157935619354248,1.2431488037109375
1713313084643276300,4.1132763671875,2.497368335723877,6.0063934326171875,3.4288697242736816
1713313084652811300,4.122811279296875,1.839231252670288,4.122782230377197,3.5956921577453613
1713313084662346200,4.13234619140625,1.1903929710388184,2.8666329383850098,3.958076000213623
1713313084671881200,4.141881103515625,1.0373578071594238,1.459531307220459,3.952425003051758
1713313084681416200,4.151416259765625,0.8029152154922485,-0.08003616333007812,4.671278953552246
1713313084690951200,4.160951171875,0.8620139360427856,-1.945904016494751,5.504972457885742
1713313084700486100,4.170486083984375,2.156352996826172,-3.395394802093506,5.474081993103027
1713313084710021400,4.180021484375,4.175009250640869,-5.660365581512451,5.407340049743652
1713313084719556400,4.189556396484375,6.095239639282227,-6.942885875701904,4.760272026062012
1713313084729091000,4.199091064453125,5.919338703155518,-7.208188533782959,4.436644554138184
1713313084738626000,4.2086259765625,4.795365333557129,-7.719338417053223,4.786940097808838
1713313084748161300,4.218161376953125,3.421581745147705,-8.382211685180664,5.473573207855225
1713313084757696300,4.2276962890625,1.4182984828948975,-8.74176025390625,5.646872520446777
1713313084767231200,4.237231201171875,0.29454684257507324,-8.868413925170898,5.897812843322754
1713313084776766200,4.24676611328125,0.1698649525642395,-9.621942520141602,5.52031135559082
1713313084786301200,4.25630126953125,0.21598345041275024,-9.806480407714844,4.755590915679932
1713313084795836200,4.265836181640625,0.35164809226989746,-9.610441207885742,3.7846577167510986
1713313084805371100,4.27537109375,0.6482503414154053,-9.449607849121094,3.082266330718994
1713313084814906000,4.284906005859375,1.1074929237365723,-9.128976821899414,2.5731916427612305
1713313084824441000,4.294441162109375,0.7729378938674927,-8.622483253479004,3.336134433746338
1713313084833976000,4.30397607421875,-1.110635757446289,-7.9646830558776855,3.8826277256011963
1713313084843511000,4.313510986328125,0.7799208760261536,-7.161710739135742,3.7689743041992188
1713313084853046000,4.3230458984375,8.348555564880371,-6.409765243530273,3.473330020904541
1713313084862581000,4.3325810546875,12.273241996765137,-3.4601330757141113,3.243264675140381
1713313084872116000,4.342115966796875,9.03423023223877,2.3463668823242188,-0.43507957458496094
1713313084881651000,4.35165087890625,3.8315279483795166,8.402101516723633,-7.600199222564697
1713313084891186200,4.361186279296875,-6.26920747756958,10.434042930603027,-16.61742401123047
1713313084900721200,4.37072119140625,-15.333950996398926,9.89242935180664,-26.403766632080078
1713313084910256000,4.380256103515625,-12.042869567871094,11.535491943359375,-29.946273803710938
1713313084919791000,4.389791015625,-3.8211562633514404,10.859436988830566,-25.262351989746094
1713313084929326000,4.399326171875,-1.9245848655700684,4.5555572509765625,-15.282885551452637
1713313084938861000,4.408861083984375,-0.6198804378509521,0.827455997467041,-5.651267051696777
1713313084948396000,4.41839599609375,1.1934232711791992,0.5504169464111328,-1.1096210479736328
1713313084957931000,4.427930908203125,0.3430521488189697,2.144960880279541,-0.43709373474121094
1713313084967466000,4.437466064453125,-1.5991257429122925,3.2189860343933105,-0.7875270843505859
1713313084977001000,4.4470009765625,-3.8494293689727783,4.211997985839844,-0.3534679412841797
1713313084986536000,4.456535888671875,-5.039097309112549,4.9448771476745605,0.25720787048339844
1713313084996071000,4.46607080078125,-4.536168098449707,5.400609970092773,0.3224763870239258
1713313085005606000,4.47560595703125,-3.1415529251098633,5.0525641441345215,0.7538356781005859
1713313085015140900,4.485140869140625,-1.9565207958221436,4.710304260253906,1.1088566780090332
1713313085024675800,4.49467578125,-0.9017200469970703,4.045295238494873,2.204279899597168
1713313085034211000,4.504211181640625,0.3208960294723511,2.265213966369629,4.674131393432617
1713313085043746000,4.51374609375,1.8995788097381592,0.4156026840209961,6.751800537109375
1713313085053280800,4.52328076171875,3.6536548137664795,-1.1679396629333496,7.926659107208252
1713313085062815700,4.532815673828125,5.052192687988281,-2.8258047103881836,8.711067199707031
1713313085072351000,4.54235107421875,6.380792140960693,-4.4133782386779785,8.820825576782227
1713313085081886000,4.551885986328125,6.939196586608887,-6.132477283477783,8.348618507385254
1713313085091421000,4.5614208984375,6.415806770324707,-7.539950370788574,8.681594848632812
1713313085100956000,4.570955810546875,4.633777141571045,-8.543986320495605,8.439722061157227
1713313085110491000,4.580490966796875,2.2525157928466797,-9.291460037231445,7.822030544281006
1713313085120025900,4.59002587890625,0.033081889152526855,-9.274474143981934,7.6493706703186035
1713313085129560800,4.599560791015625,-1.7289127111434937,-9.321107864379883,7.375604629516602
1713313085139095800,4.609095703125,-2.589545249938965,-9.227424621582031,6.554614543914795
1713313085148630800,4.618630859375,-2.4077186584472656,-8.603588104248047,5.612000465393066
1713313085158165800,4.628165771484375,-0.7879829406738281,-7.6202521324157715,5.2925262451171875
1713313085167700700,4.63770068359375,1.045382022857666,-6.80627965927124,4.9705657958984375
1713313085177235700,4.647235595703125,1.748424768447876,-5.735891342163086,4.269785404205322
1713313085186770700,4.656770751953125,3.4968769550323486,-4.806657791137695,3.0954184532165527
1713313085196305700,4.6663056640625,5.706474304199219,-3.578549385070801,-0.9812173843383789
1713313085205840600,4.675840576171875,3.819831609725952,3.692721366882324,-10.776535987854004
1713313085215376000,4.6853759765625,9.30914306640625,8.728020668029785,-15.389541625976562
1713313085224910800,4.694910888671875,7.274690628051758,8.224000930786133,-11.56033706665039
1713313085234445800,4.70444580078125,1.5540471076965332,8.134532928466797,-13.51091480255127
1713313085243980800,4.713980712890625,-2.272402286529541,9.398904800415039,-18.45964813232422
1713313085253515800,4.723515869140625,-0.3132352828979492,10.585578918457031,-15.64805793762207
1713313085263050800,4.73305078125,-1.6041749715805054,8.830831527709961,-11.076396942138672
1713313085272585700,4.742585693359375,-4.324502944946289,7.236949920654297,-7.525328636169434
1713313085282120700,4.75212060546875,-7.508849620819092,6.476595878601074,-6.160160064697266
1713313085291655700,4.76165576171875,-10.837320327758789,6.49453067779541,-6.751975059509277
1713313085301190700,4.771190673828125,-9.831167221069336,7.189794063568115,-4.209800720214844
1713313085310725600,4.7807255859375,-3.896145820617676,7.153820037841797,-4.740680694580078
1713313085320260600,4.790260498046875,0.5952143669128418,6.566230773925781,-3.0069704055786133
1713313085329795600,4.799795654296875,2.5138251781463623,5.491175174713135,-0.6348199844360352
1713313085339330600,4.80933056640625,2.829615592956543,4.710083961486816,1.3185181617736816
1713313085348865500,4.818865478515625,2.846544027328491,4.238607883453369,3.054652214050293
1713313085358400800,4.82840087890625,3.160815954208374,3.741537570953369,4.13362979888916
1713313085367935700,4.837935791015625,2.8224172592163086,2.991398334503174,3.8736534118652344
1713313085377470500,4.847470458984375,2.1693530082702637,2.2252306938171387,3.4504690170288086
1713313085387005400,4.85700537109375,0.7874075770378113,1.163177490234375,2.663450241088867
1713313085396540400,4.86654052734375,1.1914117336273193,-0.6337428092956543,2.5012331008911133
1713313085406075600,4.87607568359375,2.5285744667053223,-3.10630464553833,3.193002700805664
1713313085415610600,4.885610595703125,2.5022459030151367,-5.033087730407715,4.409323692321777
1713313085425145600,4.8951455078125,2.2546138763427734,-6.7449212074279785,5.592731952667236
1713313085434680600,4.9046806640625,2.507275104522705,-8.1893949508667,7.171090602874756
1713313085444215600,4.914215576171875,2.1730904579162598,-9.203649520874023,8.741476058959961
1713313085453750500,4.92375048828125,1.327023983001709,-9.768856048583984,9.74775505065918
1713313085463285500,4.933285400390625,0.7283526659011841,-9.57278060913086,9.209688186645508
1713313085472820500,4.942820556640625,-0.0276980958878994,-9.03737735748291,7.683067321777344
1713313085482355500,4.95235546875,-0.6977441906929016,-8.127513885498047,5.663101673126221
1713313085491890400,4.961890380859375,-0.7704768180847168,-7.6610918045043945,3.5665974617004395
1713313085501425400,4.97142529296875,-0.07209345698356628,-7.283431053161621,2.7556419372558594
1713313085510960400,4.98096044921875,0.3917543590068817,-7.210289001464844,3.132185935974121
1713313085520495400,4.990495361328125,0.7132586240768433,-7.493605613708496,4.583972454071045
1713313085530030300,5.0000302734375,0.5854052305221558,-7.695901870727539,5.861232757568359
1713313085539565300,5.0095654296875,0.5561887621879578,-7.025283336639404,6.059506416320801
1713313085549100500,5.0191005859375,2.606597661972046,-6.591782569885254,4.659266471862793
1713313085558635500,5.028635498046875,10.14350414276123,-5.700384616851807,1.6328306198120117
1713313085568170200,5.038170166015625,15.169363021850586,-2.947070360183716,-0.78863525390625
1713313085577705200,5.047705322265625,11.097912788391113,1.9416894912719727,-3.8444957733154297
1713313085587240400,5.057240478515625,4.649649620056152,7.521978378295898,-9.053876876831055
1713313085596775400,5.066775390625,-4.266603946685791,10.417616844177246,-13.312885284423828
1713313085606310400,5.076310302734375,-11.935369491577148,10.685580253601074,-17.59627914428711
1713313085615845400,5.085845458984375,-12.935307502746582,9.054375648498535,-21.176631927490234
1713313085625380400,5.09538037109375,-2.503730058670044,8.329767227172852,-20.76700210571289
1713313085634915300,5.104915283203125,0.3719462454319,6.363263130187988,-15.75046157836914
1713313085644450300,5.1144501953125,0.5477103590965271,4.816007614135742,-8.573655128479004
1713313085653985300,5.1239853515625,0.7346720695495605,4.047698497772217,-4.7474164962768555
1713313085663520300,5.133520263671875,-0.2388816475868225,4.282192707061768,-3.7156620025634766
1713313085673055200,5.14305517578125,-3.055190324783325,4.578958988189697,-3.5131139755249023
1713313085682590200,5.152590087890625,-5.228399753570557,4.74868631362915,-3.3315935134887695
1713313085692125200,5.162125244140625,-5.643188953399658,4.816619396209717,-2.5000925064086914
1713313085701660200,5.17166015625,-5.244609832763672,4.333305835723877,-1.5470638275146484
1713313085711195100,5.181195068359375,-4.732934951782227,3.549095630645752,-0.5775070190429688
1713313085720730000,5.190730224609375,-4.034084796905518,2.856597900390625,0.8552131652832031
1713313085730265300,5.200265380859375,-3.1147208213806152,1.5904293060302734,2.945005416870117
1713313085739800300,5.20980029296875,-1.5708703994750977,0.07652711868286133,5.421162128448486
1713313085749335300,5.219335205078125,0.09617960453033447,-1.5770649909973145,6.806155204772949
1713313085758870300,5.228870361328125,1.8674407005310059,-3.256401538848877,7.109617233276367
1713313085768405200,5.2384052734375,3.9638748168945312,-5.096220970153809,7.429905414581299
1713313085777940200,5.247940185546875,5.546626091003418,-7.054702281951904,8.050196647644043
1713313085787475200,5.25747509765625,5.872334957122803,-8.727157592773438,8.399972915649414
1713313085797010200,5.26701025390625,5.199610233306885,-9.713052749633789,8.814297676086426
1713313085806545200,5.276545166015625,3.8777832984924316,-10.423836708068848,9.428184509277344
1713313085816080100,5.286080078125,2.321460723876953,-10.551031112670898,9.25117301940918
1713313085825615000,5.295614990234375,0.6066832542419434,-10.015339851379395,8.46993637084961
1713313085835150000,5.305150146484375,-0.9182707667350769,-9.018299102783203,7.4068708419799805
1713313085844685000,5.31468505859375,-2.290848731994629,-7.6878838539123535,6.289630889892578
1713313085854220000,5.324219970703125,-2.723552703857422,-6.674088954925537,5.152551651000977
1713313085863755000,5.333755126953125,-1.5679221153259277,-6.127356052398682,4.737764358520508
1713313085873290200,5.343290283203125,0.4005526602268219,-5.7716240882873535,4.435622215270996
1713313085882825200,5.3528251953125,2.051619291305542,-5.144745826721191,3.5631790161132812
1713313085892360200,5.362360107421875,5.20359992980957,-4.89183235168457,2.925276279449463
1713313085901895000,5.37189501953125,4.925768852233887,-4.8394083976745605,1.4896478652954102
1713313085911430100,5.38143017578125,6.031130790710449,-1.0932731628417969,-1.850144386291504
1713313085920965000,5.390965087890625,7.297204971313477,4.103705883026123,-8.556741714477539
1713313085930500000,5.4005,4.172868251800537,3.87601900100708,-9.642776489257812
1713313085940035000,5.41003515625,-5.777796268463135,5.209290504455566,-11.060599327087402
1713313085949570000,5.419570068359375,-4.390393257141113,7.279606819152832,-14.462567329406738
1713313085959105000,5.42910498046875,-3.1574137210845947,7.526065349578857,-16.659889221191406
1713313085968640000,5.438639892578125,-3.498931407928467,9.326814651489258,-15.009220123291016
1713313085978175000,5.448175048828125,-3.5625782012939453,9.315556526184082,-11.151193618774414
1713313085987710000,5.4577099609375,-5.201290607452393,8.108274459838867,-7.1480865478515625
1713313085997245000,5.467244873046875,-7.944379806518555,7.105604648590088,-3.815969467163086
1713313086006780000,5.47677978515625,-11.360011100769043,7.340396404266357,-1.3204421997070312
1713313086016315000,5.48631494140625,-8.084102630615234,6.356680870056152,-1.5111017227172852
1713313086025849900,5.495849853515625,-3.030991792678833,5.645407199859619,0.5373172760009766
1713313086035384800,5.505384765625,0.5863838195800781,4.4812517166137695,2.1726999282836914
1713313086044919800,5.514919921875,2.6086225509643555,3.872129440307617,3.4488840103149414
1713313086054455000,5.524455078125,3.439140558242798,3.809713840484619,4.434658050537109
1713313086063990000,5.533989990234375,4.4048614501953125,3.0509982109069824,4.1084394454956055
1713313086073525000,5.54352490234375,4.912179946899414,2.54097318649292,2.7830891609191895
1713313086083060000,5.55306005859375,4.682334899902344,2.9576539993286133,0.9427394866943359
1713313086092595000,5.562594970703125,3.401395082473755,3.717222213745117,-0.5187644958496094
1713313086102130000,5.5721298828125,1.600551962852478,4.4164299964904785,-0.7486057281494141
1713313086111665000,5.581664794921875,1.6528749465942383,2.597843647003174,-0.11738777160644531
1713313086121199900,5.591199951171875,2.4443559646606445,-0.7610106468200684,2.0496249198913574
1713313086130734800,5.60073486328125,2.7756435871124268,-3.3416972160339355,4.69227409362793
1713313086140269800,5.610269775390625,2.0677175521850586,-5.299983024597168,6.915583610534668
1713313086149804800,5.6198046875,1.076845645904541,-6.904696464538574,8.21908950805664
1713313086159339800,5.62933984375,0.12390339374542236,-7.786221504211426,8.549459457397461
1713313086168874800,5.638874755859375,-0.14800268411636353,-7.957275390625,7.632216453552246
1713313086178409700,5.64840966796875,-0.39500588178634644,-8.265308380126953,6.084938049316406
1713313086187944700,5.65794482421875,-0.8357576131820679,-8.451343536376953,4.461639404296875
1713313086197480000,5.66747998046875,-1.1681121587753296,-8.849336624145508,2.585000991821289
1713313086207015000,5.677014892578125,-0.9296799898147583,-9.746101379394531,1.848414421081543
1713313086216549600,5.686549560546875,-0.6784572601318359,-10.439266204833984,2.8040003776550293
1713313086226084600,5.696084716796875,-0.22620388865470886,-10.707257270812988,4.847580909729004
1713313086235619600,5.70561962890625,-0.20576240122318268,-10.643610000610352,5.924276351928711
1713313086245154800,5.71515478515625,0.16248385608196259,-9.386056900024414,6.063282012939453
1713313086254689800,5.724689697265625,-1.2561897039413452,-8.5709228515625,4.614577770233154
1713313086264224800,5.734224853515625,4.02262020111084,-6.944149971008301,1.9851245880126953
1713313086273759700,5.743759765625,14.001087188720703,-4.962865352630615,-0.46292877197265625
1713313086283294700,5.753294677734375,15.759745597839355,-0.6715292930603027,-2.4026479721069336
1713313086292829700,5.76282958984375,11.156749725341797,4.900075435638428,-7.46218204498291
1713313086302364700,5.77236474609375,0.9384729862213135,9.297637939453125,-11.033482551574707
1713313086311899600,5.781899658203125,-16.496414184570312,9.555953025817871,-21.091161727905273
1713313086321434600,5.7914345703125,-20.660625457763672,8.111863136291504,-31.856361389160156
1713313086330969600,5.800969482421875,-5.050637722015381,9.8572998046875,-31.184524536132812
1713313086340504600,5.810504638671875,-2.1682188510894775,5.097425937652588,-19.923259735107422
1713313086350039600,5.82003955078125,-0.7459257245063782,0.7638940811157227,-9.926968574523926
1713313086359574500,5.829574462890625,1.9117558002471924,0.2172255516052246,-4.9329328536987305
1713313086369109500,5.839109619140625,2.0499792098999023,1.735574722290039,-4.391253471374512
1713313086378644500,5.84864453125,-0.24502921104431152,3.1240921020507812,-4.165809631347656
1713313086388179700,5.8581796875,-4.151161193847656,4.252833843231201,-3.2874813079833984
1713313086397714700,5.867714599609375,-6.475818157196045,4.83824348449707,-1.719818115234375
1713313086407249700,5.877249755859375,-6.231271266937256,4.368989944458008,-0.21026134490966797
1713313086416784600,5.88678466796875,-4.999576091766357,4.272324562072754,1.0688748359680176
1713313086426319600,5.896319580078125,-3.7572526931762695,4.074751853942871,1.552546501159668
1713313086435854600,5.9058544921875,-2.5357308387756348,3.0953850746154785,3.0215272903442383
1713313086445389600,5.9153896484375,-1.4473645687103271,1.2962994575500488,5.416590690612793
1713313086454924500,5.924924560546875,-0.649735689163208,-1.0439834594726562,7.912280082702637
1713313086464459500,5.93445947265625,0.11692816019058228,-3.495981216430664,9.518501281738281
1713313086473994500,5.943994384765625,1.1868586540222168,-5.815670013427734,9.897054672241211
1713313086483529500,5.953529541015625,2.2764222621917725,-7.717082500457764,9.967636108398438
1713313086493064400,5.963064453125,3.809790849685669,-8.981241226196289,10.425992965698242
1713313086502599400,5.972599365234375,4.646739959716797,-9.75332260131836,10.643430709838867
1713313086512134400,5.982134521484375,4.692301273345947,-10.356542587280273,10.028385162353516
1713313086521669400,5.99166943359375,3.210754156112671,-9.803702354431152,8.892437934875488
1713313086531204600,6.00120458984375,0.40434974431991577,-8.968217849731445,7.92999792098999
1713313086540739300,6.0107392578125,-2.0502264499664307,-7.804222106933594,6.783890724182129
1713313086550274300,6.0202744140625,-2.9386825561523438,-6.938666820526123,6.032619476318359
1713313086559809300,6.029809326171875,-2.3095152378082275,-7.051260948181152,6.767632961273193
1713313086569344500,6.039344482421875,-1.2507905960083008,-7.5881266593933105,7.190088272094727
1713313086578879500,6.04887939453125,-1.3851895332336426,-8.07202434539795,6.81125545501709
1713313086588414500,6.05841455078125,-1.2689281702041626,-6.79349946975708,5.181136608123779
1713313086597949400,6.067949462890625,3.0632762908935547,-6.123658657073975,3.1441454887390137
1713313086607484400,6.077484375,5.424661636352539,-4.338527679443359,-0.9572024345397949
1713313086617019400,6.087019287109375,5.802788257598877,2.7739553451538086,-6.482337474822998
1713313086626554400,6.096554443359375,7.125938415527344,6.253087043762207,-10.260208129882812
1713313086636089300,6.10608935546875,-0.35602250695228577,6.397555351257324,-11.45545482635498
1713313086645624300,6.115624267578125,-3.608175754547119,8.243939399719238,-12.04068374633789
1713313086655159300,6.1251591796875,-1.3127106428146362,8.467403411865234,-16.17855453491211
1713313086664694300,6.1346943359375,-0.5950884222984314,7.701557159423828,-15.474007606506348
1713313086674229200,6.144229248046875,-0.8431128263473511,7.113859176635742,-13.384759902954102
1713313086683764200,6.15376416015625,-1.560689091682434,6.688910007476807,-10.94058895111084
1713313086693299200,6.16329931640625,-4.35467529296875,6.106357097625732,-8.424674987792969
1713313086702834200,6.172834228515625,-7.477818965911865,6.0851054191589355,-6.961020469665527
1713313086712369400,6.182369384765625,-10.952689170837402,6.902284145355225,-5.533429145812988
1713313086721904400,6.191904296875,-7.199251174926758,6.829789161682129,-4.545801162719727
1713313086731439400,6.201439453125,-2.3574531078338623,6.082930088043213,-3.3175039291381836
1713313086740974300,6.210974365234375,-0.25723761320114136,6.057988166809082,-0.4215841293334961
1713313086750509300,6.22050927734375,-0.14906752109527588,5.954889297485352,0.9688453674316406
1713313086760044300,6.230044189453125,0.6281170845031738,5.452937126159668,1.6919641494750977
1713313086769579300,6.239579345703125,2.009255886077881,4.25202751159668,2.4151058197021484
1713313086779114200,6.2491142578125,2.5841026306152344,2.8110475540161133,2.4340639114379883
1713313086788649200,6.258649169921875,1.8941656351089478,1.878995418548584,3.255618095397949
1713313086798184200,6.26818408203125,1.088294506072998,-0.019933700561523438,3.3664636611938477
1713313086807719200,6.27771923828125,1.3316978216171265,-1.9796643257141113,3.8278589248657227
1713313086817254100,6.287254150390625,1.7203806638717651,-4.026009559631348,4.3916730880737305
1713313086826789000,6.2967890625,1.7135093212127686,-5.851126670837402,4.642616271972656
1713313086836324000,6.306323974609375,1.1402620077133179,-7.3754167556762695,5.370288372039795
1713313086845859000,6.315859130859375,0.2829171419143677,-8.62409782409668,6.07205057144165
1713313086855394300,6.325394287109375,-0.898552656173706,-9.419251441955566,6.3097639083862305
1713313086864929000,6.334928955078125,-1.495282769203186,-9.599715232849121,6.706318378448486
1713313086874464000,6.344464111328125,-1.89729642868042,-9.65121841430664,6.5505828857421875
1713313086883999000,6.3539990234375,-2.2405989170074463,-9.18336296081543,5.561205863952637
1713313086893534200,6.3635341796875,-2.532541275024414,-8.441201210021973,4.7451348304748535
1713313086903069200,6.373069091796875,-2.6872406005859375,-7.7749857902526855,3.758547782897949
1713313086912604200,6.382604248046875,-1.8847410678863525,-7.466217994689941,3.6639223098754883
1713313086922139100,6.39213916015625,-0.42005330324172974,-7.549465179443359,4.724825859069824
1713313086931674000,6.401674072265625,1.1768202781677246,-6.964432239532471,6.013713836669922
1713313086941209000,6.411208984375,1.500612497329712,-6.6551079750061035,5.915066242218018
1713313086950744000,6.420744140625,1.682157278060913,-5.829938888549805,4.050017833709717
1713313086960279000,6.430279052734375,7.17466402053833,-4.681358337402344,0.1146097183227539
1713313086969814000,6.43981396484375,14.24531364440918,-3.037229537963867,-3.3368101119995117
1713313086979349000,6.449348876953125,13.81744384765625,0.877011775970459,-5.746136665344238
1713313086988884000,6.458884033203125,9.756878852844238,7.738857746124268,-9.266753196716309
1713313086998419000,6.4684189453125,1.21587073802948,11.205235481262207,-11.544448852539062
1713313087007954000,6.477953857421875,-9.957449913024902,9.662853240966797,-17.738265991210938
1713313087017489000,6.487489013671875,-17.62613296508789,7.865488529205322,-21.555675506591797
1713313087027024000,6.49702392578125,-10.543229103088379,6.3943963050842285,-23.03953742980957
1713313087036559000,6.50655908203125,-2.722510814666748,4.378430366516113,-18.166866302490234
1713313087046094000,6.516093994140625,-1.468127727508545,2.372556209564209,-11.837053298950195
1713313087055629000,6.525629150390625,-1.2581866979599,1.6880850791931152,-6.477404594421387
1713313087065163800,6.535163818359375,-0.7521578073501587,1.810896396636963,-2.819498062133789
1713313087074698800,6.54469873046875,-1.1364169120788574,1.4978394508361816,-1.1272563934326172
1713313087084234000,6.55423388671875,-1.9790456295013428,1.1587977409362793,0.03295326232910156
1713313087093769000,6.56376904296875,-2.7241134643554688,1.0659403800964355,1.5712480545043945
1713313087103304000,6.573303955078125,-3.785959005355835,1.6303281784057617,1.6208724975585938
1713313087112839000,6.5828388671875,-5.005582809448242,2.8056459426879883,0.5781898498535156
1713313087122374000,6.592373779296875,-5.233519077301025,4.250195026397705,-0.07123470306396484
1713313087131908900,6.601908935546875,-4.409846305847168,3.7912468910217285,1.8692092895507812
1713313087141443800,6.61144384765625,-2.7901992797851562,1.620126724243164,4.849681377410889
1713313087150978800,6.620978759765625,-0.4046395421028137,-1.0263400077819824,8.177845001220703
1713313087160513800,6.630513671875,1.7830872535705566,-3.0665721893310547,10.357763290405273
1713313087170048800,6.640048828125,3.0742745399475098,-4.921065807342529,11.526824951171875
1713313087179583700,6.649583740234375,3.170743227005005,-6.55394172668457,12.00430679321289
1713313087189118700,6.65911865234375,3.0918385982513428,-8.007938385009766,12.524519920349121
1713313087198653700,6.66865380859375,3.3592817783355713,-9.279376983642578,12.85206413269043
1713313087208188700,6.678188720703125,3.571774959564209,-9.891033172607422,12.964807510375977
1713313087217723600,6.6877236328125,3.4614028930664062,-9.78877067565918,12.092789649963379
1713313087227259000,6.6972587890625,3.0868608951568604,-8.950597763061523,10.278000831604004
1713313087236793900,6.7067939453125,2.161133050918579,-7.578035831451416,8.520370483398438
1713313087246328800,6.716328857421875,0.4900991916656494,-6.2358717918396,6.787636756896973
1713313087255863800,6.72586376953125,-1.1994245052337646,-5.80015754699707,4.546921730041504
1713313087265398800,6.735398681640625,-1.4375723600387573,-5.462812423706055,3.087507724761963
1713313087274933800,6.744933837890625,-1.7125416994094849,-4.787774562835693,1.172102451324463
1713313087284468700,6.75446875,-2.100407600402832,-3.8839402198791504,-0.6936445236206055
1713313087294003700,6.764003662109375,0.32831424474716187,-4.554717063903809,-0.2366628646850586
1713313087303538700,6.77353857421875,0.11665505170822144,-2.5028274059295654,-5.102784633636475
1713313087313073700,6.78307373046875,-0.49999284744262695,4.001996040344238,-6.402095317840576
1713313087322608600,6.792608642578125,1.8920233249664307,6.136366367340088,-6.865877151489258
1713313087332143600,6.8021435546875,2.848766803741455,7.362790584564209,-9.60604476928711
1713313087341678600,6.8116787109375,1.9985078573226929,9.453722953796387,-18.304656982421875
1713313087351213600,6.821213623046875,5.063361167907715,12.778512001037598,-23.43366241455078
1713313087360748500,6.83074853515625,4.8306708335876465,14.544336318969727,-20.66568946838379
1713313087370283800,6.84028369140625,1.2329834699630737,12.64425277709961,-17.874650955200195
1713313087379818800,6.84981884765625,-5.041223526000977,10.18348503112793,-13.544175148010254
1713313087389353500,6.859353515625,-6.866188049316406,8.404170989990234,-9.461800575256348
1713313087398888400,6.868888427734375,-9.506884574890137,7.002232074737549,-5.252063751220703
1713313087408423700,6.878423583984375,-7.589764595031738,5.1498494148254395,-3.5826587677001953
1713313087417958700,6.887958740234375,-4.318489074707031,3.786841869354248,-2.088682174682617
1713313087427493600,6.89749365234375,-2.0456042289733887,2.616565227508545,-0.011900901794433594
1713313087437028600,6.907028564453125,-0.13034868240356445,1.2974443435668945,1.9117679595947266
1713313087446563600,6.9165634765625,1.689162015914917,0.4123196601867676,3.626056671142578
1713313087456098600,6.9260986328125,2.9637725353240967,-1.1052000522613525,5.116515159606934
1713313087465633500,6.935633544921875,2.274930715560913,-2.581599235534668,6.158627986907959
1713313087475168500,6.94516845703125,1.1041280031204224,-4.039168357849121,6.611682891845703
1713313087484703500,6.954703369140625,0.23826637864112854,-5.448533058166504,7.06790018081665
1713313087494238500,6.964238525390625,0.6983252763748169,-6.723597526550293,7.079395294189453
1713313087503773400,6.9737734375,1.820312738418579,-7.717746257781982,7.439499855041504
1713313087513308400,6.983308349609375,2.9368577003479004,-8.359314918518066,7.8701276779174805
1713313087522843400,6.992843505859375,4.1436967849731445,-8.663711547851562,8.470963478088379
1713313087532378400,7.00237841796875,4.257317543029785,-8.385501861572266,8.349889755249023
1713313087541913300,7.011913330078125,2.6952500343322754,-7.610413551330566,7.215560436248779
1713313087551448600,7.021448486328125,-1.042129397392273,-5.8751630783081055,5.507256031036377
1713313087560983600,7.030983642578125,-6.101151466369629,-3.917898178100586,3.6596946716308594
1713313087570518500,7.0405185546875,-8.011866569519043,-2.913158893585205,3.239286422729492
1713313087580053500,7.050053466796875,-4.6389617919921875,-3.9924848079681396,4.37410306930542
1713313087589588500,7.05958837890625,-1.2444653511047363,-5.8239641189575195,5.490958213806152
1713313087599123500,7.06912353515625,1.1010018587112427,-7.487227439880371,6.743925094604492
1713313087608658400,7.078658447265625,2.61796498298645,-8.697237968444824,7.182393550872803
1713313087618193400,7.088193359375,3.8959298133850098,-8.253495216369629,6.041492462158203
1713313087627728400,7.097728271484375,4.987568378448486,-7.3494977951049805,4.639697074890137
1713313087637263400,7.107263427734375,4.756535053253174,-5.5707106590271,3.4524364471435547
1713313087646798300,7.11679833984375,3.8068385124206543,-3.7184133529663086,0.717705249786377
1713313087656333300,7.126333251953125,2.654615879058838,-1.5894804000854492,-3.468191146850586
1713313087665868300,7.135868408203125,2.2813196182250977,0.5391783714294434,-6.175479888916016
1713313087675403300,7.1454033203125,3.4733543395996094,4.504948616027832,-8.434202194213867
1713313087684938200,7.154938232421875,5.061850070953369,9.812492370605469,-12.44720458984375
1713313087694473500,7.164473388671875,0.6636940240859985,12.488117218017578,-16.714941024780273
1713313087704008200,7.17400830078125,-5.709268569946289,12.98959732055664,-25.357812881469727
1713313087713543200,7.183543212890625,-7.0032196044921875,10.273477554321289,-31.69585418701172
1713313087723078100,7.193078125,-10.083827018737793,6.763193607330322,-23.372560501098633
1713313087732613000,7.202613037109375,-8.452520370483398,3.005708694458008,-12.033053398132324
1713313087742148400,7.2121484375,-5.818858623504639,2.545045852661133,-7.963808059692383
1713313087751683300,7.221683349609375,-4.009965896606445,4.339862823486328,-7.157367706298828
1713313087761218300,7.23121826171875,-2.761082172393799,4.873150825500488,-4.521429061889648
1713313087770753300,7.240753173828125,-2.1148319244384766,4.0001044273376465,-1.945566177368164
1713313087780288300,7.250288330078125,-2.961984634399414,3.150951862335205,1.0602002143859863
1713313087789823200,7.2598232421875,-3.5815138816833496,2.631598472595215,3.0904078483581543
1713313087799358200,7.269358154296875,-2.9553799629211426,2.4093432426452637,3.9646992683410645
1713313087808893200,7.27889306640625,-1.1174249649047852,2.058950901031494,4.588213920593262
1713313087818428200,7.28842822265625,1.140887975692749,1.0018091201782227,5.962181091308594
1713313087827963100,7.297963134765625,3.452392816543579,-0.2888374328613281,7.3933024406433105
1713313087837498000,7.307498046875,4.929296493530273,-1.786529541015625,8.384035110473633
1713313087847033000,7.317033203125,5.338419437408447,-2.9767160415649414,9.481075286865234
1713313087856568000,7.326568115234375,4.8482866287231445,-4.153587341308594,10.539902687072754
1713313087866103000,7.33610302734375,4.142343521118164,-5.283336162567139,11.77228832244873
1713313087875638300,7.34563818359375,3.725802421569824,-6.646674156188965,12.73043441772461
1713313087885173200,7.35517333984375,3.868194580078125,-8.053281784057617,13.178159713745117
1713313087894708200,7.364708251953125,4.226478576660156,-9.060935974121094,13.04171371459961
1713313087904243200,7.3742431640625,3.8738887310028076,-9.230232238769531,11.715462684631348
1713313087913778000,7.38377783203125,2.0897157192230225,-8.804027557373047,10.464292526245117
1713313087923313200,7.393313232421875,-0.2114478349685669,-8.22415542602539,8.970635414123535
1713313087932848000,7.40284814453125,-1.6211830377578735,-7.351169109344482,7.79348087310791
1713313087942383000,7.412383056640625,-2.0699429512023926,-6.958583831787109,6.819981575012207
1713313087951918000,7.42191796875,-2.4126291275024414,-7.057607650756836,5.720951557159424
1713313087961453000,7.431453125,-1.365203619003296,-6.802149772644043,5.311702728271484
1713313087970988000,7.440988037109375,0.07543528079986572,-6.305734157562256,4.9283833503723145
1713313087980523000,7.45052294921875,-1.221381425857544,-5.925088882446289,5.143254280090332
1713313087990058000,7.46005810546875,-9.453502655029297,-5.319356441497803,3.9901204109191895
1713313087999593000,7.469593017578125,-10.658616065979004,-4.3990654945373535,-3.3321614265441895
1713313088009128000,7.4791279296875,2.287199020385742,5.268377304077148,-8.863353729248047
1713313088018663000,7.488662841796875,0.8525521755218506,7.229101657867432,-7.951193332672119
1713313088028198000,7.498197998046875,11.410430908203125,10.351932525634766,-10.115028381347656
1713313088037732900,7.50773291015625,21.746959686279297,15.316949844360352,-19.079505920410156
1713313088047267800,7.517267822265625,16.84945297241211,16.67904281616211,-29.429336547851562
1713313088056802800,7.526802734375,4.620454788208008,14.593124389648438,-34.74348831176758
1713313088066338000,7.536338134765625,-10.570043563842773,11.46318531036377,-24.243234634399414
1713313088075873000,7.545873046875,-16.72642707824707,8.848321914672852,-13.541523933410645
1713313088085408000,7.555407958984375,-16.067209243774414,5.299549579620361,-10.959123611450195
1713313088094943000,7.56494287109375,-16.954776763916016,2.637848377227783,-6.766157150268555
1713313088104478000,7.57447802734375,-11.988134384155273,2.5503339767456055,-3.8216257095336914
1713313088114013000,7.584012939453125,-4.881864547729492,1.770132064819336,-2.2764711380004883
1713313088123548000,7.5935478515625,-1.353070855140686,0.6419191360473633,-0.2468881607055664
1713313088133083000,7.603082763671875,0.8493229150772095,0.2845792770385742,1.4844975471496582
1713313088142617900,7.612617919921875,1.6985355615615845,0.32758235931396484,2.7411742210388184
1713313088152152800,7.62215283203125,2.2107505798339844,0.05338144302368164,2.8759355545043945
1713313088161687800,7.631687744140625,2.286071538925171,0.6574277877807617,1.3974428176879883
1713313088171222800,7.641222900390625,0.34838810563087463,1.2931461334228516,1.8428316116333008
1713313088180757800,7.6507578125,-2.185331106185913,0.6523470878601074,3.346254348754883
1713313088190292700,7.660292724609375,-2.1949167251586914,-1.2143988609313965,4.790027141571045
1713313088199827700,7.66982763671875,-0.24791394174098969,-4.0441484451293945,5.669627666473389
1713313088209363000,7.679363037109375,2.335479736328125,-6.509281158447266,6.56195068359375
1713313088218898000,7.68889794921875,4.6326069831848145,-8.143844604492188,7.880302429199219
1713313088228432600,7.6984326171875,5.301204204559326,-9.057514190673828,9.028678894042969
1713313088237967600,7.707967529296875,4.007015705108643,-9.200850486755371,9.185056686401367
1713313088247502800,7.7175029296875,1.4874083995819092,-9.092870712280273,9.537808418273926
1713313088257037800,7.727037841796875,-1.040830373764038,-8.860424041748047,9.749951362609863
1713313088266572800,7.73657275390625,-2.2765820026397705,-8.144206047058105,9.222681999206543
1713313088276107800,7.746107666015625,-2.1975581645965576,-7.418548583984375,7.248030185699463
1713313088285642800,7.755642822265625,-1.1791574954986572,-7.2194504737854,5.452003479003906
1713313088295177700,7.765177734375,-0.1836044192314148,-7.477042198181152,4.159209728240967
1713313088304712700,7.774712646484375,0.6628172397613525,-7.461517810821533,5.179991722106934
1713313088314247700,7.78424755859375,1.5308403968811035,-8.396795272827148,6.442315578460693
1713313088323782700,7.79378271484375,2.641155481338501,-8.992831230163574,6.966957092285156
1713313088333317600,7.803317626953125,3.821340799331665,-8.783336639404297,7.008081436157227
1713313088342852600,7.8128525390625,4.014738082885742,-7.650504112243652,6.426571846008301
1713313088352387600,7.8223876953125,1.6005167961120605,-5.896083831787109,4.245405673980713
1713313088361922600,7.831922607421875,1.397383213043213,-3.998824119567871,0.3147420883178711
1713313088371457500,7.84145751953125,2.0261011123657227,-2.100431442260742,-3.1435441970825195
1713313088380992500,7.850992431640625,2.733283042907715,0.4591388702392578,-5.91329288482666
1713313088390527700,7.86052783203125,3.1834728717803955,3.4916181564331055,-9.67112922668457
1713313088400062700,7.870062744140625,-1.0964915752410889,8.371711730957031,-13.678934097290039
1713313088409597700,7.87959765625,-11.966577529907227,11.118521690368652,-20.03284454345703
1713313088419132700,7.889132568359375,-14.962008476257324,11.210554122924805,-29.107418060302734
1713313088428667600,7.898667724609375,-7.0406622886657715,10.964887619018555,-29.836624145507812
1713313088438202600,7.90820263671875,0.0609203577041626,9.868480682373047,-25.60572052001953
1713313088447737600,7.917737548828125,0.14789831638336182,8.37432861328125,-18.002058029174805
1713313088457272600,7.9272724609375,-1.441757082939148,8.47890853881836,-11.872225761413574
1713313088466807600,7.9368076171875,-1.3577194213867188,7.659692764282227,-7.752691268920898
1713313088476342500,7.946342529296875,-1.0694196224212646,5.828868865966797,-3.696361541748047
1713313088485877500,7.95587744140625,-2.702650785446167,4.567506313323975,-0.3633451461791992
1713313088495412500,7.96541259765625,-4.705349445343018,3.5401086807250977,3.5461645126342773
1713313088504947500,7.974947509765625,-4.795474529266357,2.0073094367980957,6.140340805053711
1713313088514482400,7.984482421875,-2.4898078441619873,0.3678464889526367,8.05418872833252
1713313088524017400,7.994017333984375,0.6788754463195801,-0.8096737861633301,9.19788932800293
1713313088533552600,8.003552734375,2.8622963428497314,-1.8014922142028809,9.993087768554688
1713313088543087600,8.013087646484376,4.087787628173828,-2.7301628589630127,10.466115951538086
1713313088552622600,8.02262255859375,4.147550106048584,-3.5272181034088135,11.34537124633789
1713313088562157600,8.032157470703124,3.9777424335479736,-4.314525127410889,12.332780838012695
1713313088571692300,8.0416923828125,4.163315773010254,-5.187162399291992,12.562237739562988
1713313088581227500,8.0512275390625,4.960441589355469,-5.87946891784668,12.723569869995117
1713313088590762500,8.060762451171875,5.932882308959961,-6.473552703857422,12.509554862976074
1713313088600297500,8.07029736328125,6.403604507446289,-6.951729774475098,12.367076873779297
1713313088609832400,8.07983251953125,5.942361831665039,-7.021333694458008,11.802602767944336
1713313088619367400,8.089367431640625,4.365251541137695,-6.801706314086914,10.501398086547852
1713313088628902400,8.09890234375,1.9352984428405762,-6.539234638214111,9.5692720413208
1713313088638437400,8.108437255859375,-0.2879946231842041,-5.85294771194458,8.601255416870117
1713313088647972400,8.117972412109374,-1.2583568096160889,-5.046243190765381,7.431110858917236
1713313088657507300,8.12750732421875,-0.11484408378601074,-4.669114112854004,6.868314743041992
1713313088667042300,8.137042236328124,1.69852876663208,-4.148952007293701,6.663755416870117
1713313088676577500,8.14657763671875,2.4088940620422363,-3.2084901332855225,6.118292808532715
1713313088686112500,8.156112548828125,0.7011706829071045,-1.9621703624725342,5.3186140060424805
1713313088695647200,8.165647216796875,-7.663086891174316,-0.7418227195739746,3.490428924560547
1713313088705182200,8.17518212890625,-5.031956672668457,-1.7364473342895508,-3.50589656829834
1713313088714717200,8.18471728515625,3.7853450775146484,6.574669361114502,-8.788351058959961
1713313088724252400,8.19425244140625,8.337440490722656,9.618919372558594,-12.796188354492188
1713313088733787400,8.203787353515626,20.911657333374023,9.817171096801758,-18.19116973876953
1713313088743322400,8.213322265625,27.40720558166504,12.128015518188477,-24.280750274658203
1713313088752857300,8.222857421875,5.873695373535156,9.942264556884766,-26.734275817871094
1713313088762392300,8.232392333984375,-16.285076141357422,11.621320724487305,-21.234569549560547
1713313088771927300,8.24192724609375,-15.729772567749023,15.471156120300293,-17.26688575744629
1713313088781462300,8.251462158203125,-10.690077781677246,10.234783172607422,-14.894430160522461
1713313088790997200,8.260997314453125,-4.393402099609375,7.028227806091309,-11.93443775177002
1713313088800532200,8.2705322265625,-6.002237319946289,3.632841110229492,-7.040801048278809
1713313088810067200,8.280067138671875,-5.748882293701172,2.433948040008545,-5.084607124328613
1713313088819602200,8.289602294921876,0.08225041627883911,1.9541974067687988,-5.29232120513916
1713313088829137200,8.29913720703125,3.7397091388702393,2.362509250640869,-2.582608222961426
1713313088838672100,8.308672119140626,3.7794792652130127,2.557591438293457,0.3331775665283203
1713313088848207000,8.31820703125,1.0532945394515991,1.925732135772705,3.038057327270508
1713313088857742000,8.3277421875,-1.7926042079925537,1.228494644165039,5.228976726531982
1713313088867277300,8.33727734375,-1.5483859777450562,0.23412084579467773,5.631757736206055
1713313088876812300,8.346812255859374,0.06624484062194824,-1.4760527610778809,6.029499530792236
1713313088886347300,8.35634716796875,0.6583786606788635,-3.438938617706299,7.018702507019043
1713313088895882200,8.36588232421875,1.6818122863769531,-5.150582313537598,7.646771430969238
1713313088905417200,8.375417236328126,3.059671640396118,-6.164882659912109,7.510904312133789
1713313088914952200,8.3849521484375,3.94866943359375,-6.671896934509277,6.582395553588867
1713313088924487200,8.394487060546876,3.7722373008728027,-7.146562576293945,5.957056999206543
1713313088934022100,8.404022216796875,2.202404737472534,-7.7132487297058105,6.123321533203125
1713313088943557000,8.41355712890625,-0.024140000343322754,-8.396211624145508,6.9910736083984375
1713313088953092000,8.423092041015625,-1.9612081050872803,-8.981955528259277,6.975872039794922
1713313088962627000,8.432626953125,-2.6088595390319824,-9.390861511230469,6.638247489929199
1713313088972162000,8.442162109375,-1.6166763305664062,-9.52285385131836,5.7774128913879395
1713313088981697000,8.451697021484375,0.5584737658500671,-9.30022144317627,5.031497001647949
1713313088991232000,8.46123193359375,2.361316204071045,-8.732691764831543,4.505488872528076
1713313089000767000,8.47076708984375,3.2653565406799316,-8.62595272064209,5.144787788391113
1713313089010302200,8.48030224609375,4.179871082305908,-8.651464462280273,5.9062652587890625
1713313089019837200,8.489837158203125,4.0536603927612305,-8.741703033447266,6.781669616699219
1713313089029372200,8.4993720703125,3.6072750091552734,-7.8082966804504395,6.582153797149658
1713313089038907100,8.5089072265625,2.2323708534240723,-6.336989402770996,6.633831024169922
1713313089048442000,8.518442138671874,0.5195984840393066,-5.26099967956543,4.960206508636475
1713313089057977000,8.52797705078125,5.102235317230225,-4.914885997772217,0.754880428314209
1713313089067512000,8.537511962890624,10.194162368774414,-3.1467208862304688,-1.6858329772949219
1713313089077047000,8.547047119140625,9.164224624633789,0.6361746788024902,-2.527711868286133
1713313089086582000,8.55658203125,5.461681842803955,6.603543758392334,-4.9981689453125
1713313089096117000,8.566116943359376,-4.624378204345703,14.573884010314941,-13.8115816116333
1713313089105652000,8.57565185546875,-15.983525276184082,18.310596466064453,-25.253543853759766
1713313089115187000,8.58518701171875,-13.111572265625,16.549266815185547,-34.79059982299805
1713313089124722000,8.594721923828125,-2.246922254562378,13.048949241638184,-30.686466217041016
1713313089134257000,8.6042568359375,3.242032766342163,8.076946258544922,-19.553356170654297
1713313089143791900,8.6137919921875,1.1478562355041504,4.0316901206970215,-10.265578269958496
1713313089153327000,8.6233271484375,-1.8166918754577637,4.682556629180908,-6.142605781555176
1713313089162862000,8.632862060546875,-4.171394348144531,5.340921401977539,-4.517152786254883
1713313089172397000,8.64239697265625,-5.373796463012695,5.037113189697266,-2.555699348449707
1713313089181932000,8.65193212890625,-6.029169082641602,4.579288482666016,0.2781658172607422
1713313089191467000,8.661467041015625,-5.462564468383789,3.838618755340576,2.4389963150024414
1713313089201002000,8.671001953125,-4.032403945922852,2.9948692321777344,3.448714256286621
1713313089210537000,8.680536865234375,-2.2319705486297607,2.2741427421569824,3.950643539428711
1713313089220072000,8.690072021484376,-0.16508007049560547,1.0189766883850098,5.275158405303955
1713313089229607000,8.69960693359375,1.906419277191162,-0.1682419776916504,6.123920440673828
1713313089239142000,8.709141845703124,3.7387447357177734,-1.4979848861694336,7.175088882446289
1713313089248676900,8.7186767578125,5.258163928985596,-2.7184481620788574,8.289243698120117
1713313089258211800,8.7282119140625,6.217595100402832,-3.726227283477783,9.069119453430176
1713313089267746800,8.737746826171875,6.915472030639648,-4.9960198402404785,9.709939956665039
1713313089277281800,8.74728173828125,7.460674285888672,-6.580890655517578,10.11727523803711
1713313089286816800,8.756816650390626,8.326627731323242,-8.031377792358398,10.45897102355957
1713313089296352000,8.76635205078125,8.75241756439209,-9.069761276245117,10.315437316894531
1713313089305887000,8.775886962890626,7.733109951019287,-9.50828742980957,9.825021743774414
1713313089315421700,8.785421630859375,5.136255264282227,-9.253456115722656,9.022173881530762
1713313089324956700,8.794956787109374,1.8125569820404053,-8.643142700195312,8.097162246704102
1713313089334492000,8.804491943359375,-1.250308632850647,-7.48630428314209,7.184127330780029
1713313089344027000,8.81402685546875,-3.5426275730133057,-6.307953834533691,6.680680751800537
1713313089353561900,8.823561767578125,-4.108816146850586,-5.997756004333496,5.749392986297607
1713313089363096800,8.833096923828125,-2.838921070098877,-5.8232879638671875,4.524028778076172
1713313089372631800,8.8426318359375,-0.6931602954864502,-6.234438419342041,3.326359272003174
1713313089382166800,8.852166748046875,0.546656608581543,-7.458774566650391,1.9203615188598633
1713313089391701800,8.86170166015625,0.6517938375473022,-3.2362523078918457,-2.4401330947875977
1713313089401236700,8.87123681640625,5.535837173461914,3.706448554992676,-9.189716339111328
1713313089410771700,8.880771728515626,12.382856369018555,5.181283473968506,-14.698641777038574
1713313089420306700,8.890306640625,15.712104797363281,8.410064697265625,-15.820229530334473
1713313089429841700,8.899841552734374,1.065059781074524,9.464466094970703,-20.69815444946289
1713313089439377000,8.909376953125,-11.291982650756836,9.377517700195312,-17.26990509033203
1713313089448912000,8.918911865234374,-10.644744873046875,10.35297966003418,-13.0115327835083
1713313089458446600,8.928446533203125,-9.51506519317627,8.356914520263672,-10.242717742919922
1713313089467981600,8.937981689453125,-7.701757431030273,6.8170061111450195,-5.742110252380371
1713313089477516800,8.947516845703126,-8.229567527770996,5.507186412811279,-2.311770439147949
1713313089487051800,8.9570517578125,-7.411190032958984,6.212646007537842,-0.9660453796386719
1713313089496586800,8.966586669921876,-3.2150161266326904,6.8749003410339355,-1.7832450866699219
1713313089506121700,8.976121826171875,0.9964385628700256,7.225308418273926,-3.2435522079467773
1713313089515656700,8.98565673828125,3.104825496673584,7.895065784454346,-3.6939353942871094
1713313089525191700,8.995191650390625,2.844069719314575,8.105504989624023,-2.708254814147949
1713313089534726700,9.0047265625,1.655167818069458,7.470215797424316,-2.2939443588256836
1713313089544261600,9.01426171875,1.254117727279663,6.392537593841553,-1.0306520462036133
1713313089553796600,9.023796630859374,1.6842584609985352,5.093723773956299,0.6944990158081055
1713313089563331600,9.03333154296875,1.4749863147735596,3.7257308959960938,2.083742618560791
1713313089572866600,9.042866455078125,-0.2575688362121582,2.521299362182617,3.515904426574707
1713313089582401500,9.052401611328126,-1.7033576965332031,1.4034762382507324,4.476628303527832
1713313089591936500,9.0619365234375,-1.3259775638580322,-0.48255014419555664,4.931429862976074
1713313089601471500,9.071471435546876,1.0472978353500366,-3.3619813919067383,4.382747650146484
1713313089611006500,9.08100634765625,3.720479726791382,-5.482317924499512,4.616062164306641
1713313089620541700,9.090541748046874,4.979569911956787,-6.9864888191223145,5.334798812866211
1713313089630076700,9.10007666015625,4.735835075378418,-7.604473114013672,6.266136169433594
1713313089639611600,9.109611572265624,3.598931312561035,-8.200870513916016,7.077785491943359
1713313089649146600,9.119146728515625,2.2317311763763428,-8.706210136413574,7.258430480957031
1713313089658681600,9.128681640625,0.3109404444694519,-9.041555404663086,6.67195987701416
1713313089668216600,9.138216552734375,-2.1088883876800537,-9.113962173461914,6.17672061920166
1713313089677751600,9.14775146484375,-3.43662691116333,-9.015058517456055,5.133790016174316
1713313089687286500,9.15728662109375,-3.0900845527648926,-8.877613067626953,4.5705671310424805
1713313089696821500,9.166821533203125,-1.4594347476959229,-9.097267150878906,3.8421154022216797
1713313089706356500,9.1763564453125,0.27089011669158936,-9.539155960083008,4.453132629394531
1713313089715891500,9.185891357421875,1.690039873123169,-9.64181137084961,5.04818868637085
1713313089725426400,9.195426513671874,3.118194103240967,-8.687944412231445,5.650768280029297
1713313089734961400,9.20496142578125,3.331148624420166,-7.301628112792969,5.351419925689697
1713313089744496400,9.214496337890624,2.087702512741089,-6.167227745056152,2.594151496887207
1713313089754031400,9.22403125,5.367367267608643,-5.343132972717285,-1.4284534454345703
1713313089763566600,9.233566650390625,10.795979499816895,-3.77126407623291,-1.0858030319213867
1713313089773101600,9.2431015625,9.355049133300781,-1.148535966873169,-0.21895599365234375
1713313089782636500,9.252636474609375,6.027957439422607,2.4049110412597656,-2.54141902923584
1713313089792171500,9.262171630859376,-7.230980396270752,8.043710708618164,-8.30372142791748
1713313089801706500,9.27170654296875,-24.385059356689453,9.834872245788574,-21.986513137817383
1713313089811241500,9.281241455078124,-17.281518936157227,11.289737701416016,-29.591787338256836
1713313089820776400,9.2907763671875,-1.172158122062683,12.145177841186523,-27.301767349243164
1713313089830311400,9.3003115234375,5.6845173835754395,9.194826126098633,-20.416654586791992
1713313089839846400,9.309846435546875,3.095099925994873,6.746813774108887,-13.842487335205078
1713313089849381400,9.31938134765625,-0.7375787496566772,6.195786476135254,-10.136977195739746
1713313089858916400,9.328916259765625,-2.592954635620117,5.987098693847656,-6.72115421295166
1713313089868451300,9.338451416015625,-4.04582405090332,5.101129055023193,-3.8585262298583984
1713313089877986300,9.347986328125,-6.246332168579102,4.0656328201293945,-0.3301362991333008
1713313089887521300,9.357521240234375,-6.740213394165039,2.837110996246338,1.5158319473266602
1713313089897056300,9.36705615234375,-4.802985668182373,1.7354259490966797,3.462949275970459
1713313089906591500,9.376591552734375,-2.217283010482788,0.8846135139465332,4.250164031982422
1713313089916126500,9.38612646484375,-0.4166461229324341,0.027682781219482422,5.589559555053711
1713313089925661400,9.395661376953125,0.6123268604278564,-1.2493150234222412,6.491436004638672
1713313089935196400,9.405196533203124,0.7304583787918091,-2.1536359786987305,7.366840839385986
1713313089944731400,9.4147314453125,0.43512260913848877,-3.2768192291259766,8.530692100524902
1713313089954266400,9.424266357421875,-0.2125617265701294,-4.140271186828613,9.656982421875
1713313089963801300,9.43380126953125,0.2039482593536377,-5.244389057159424,10.533465385437012
1713313089973336300,9.44333642578125,1.9221196174621582,-6.7753143310546875,11.284598350524902
1713313089982871300,9.452871337890626,4.929617881774902,-8.239851951599121,11.685068130493164
1713313089992406300,9.46240625,7.276825904846191,-9.191798210144043,12.42984390258789
1713313090001941200,9.471941162109376,8.346063613891602,-9.548492431640625,13.098957061767578
1713313090011476200,9.481476318359375,7.830926895141602,-9.204263687133789,13.010921478271484
1713313090021011200,9.49101123046875,5.552082061767578,-8.191765785217285,11.787400245666504
1713313090030546200,9.500546142578125,2.0737900733947754,-6.657980918884277,10.275595664978027
1713313090040081200,9.5100810546875,-0.7709344625473022,-5.365387439727783,9.36928653717041
1713313090049616400,9.519616455078125,-2.3258612155914307,-4.397378444671631,7.860795021057129
1713313090059151400,9.5291513671875,-2.9184417724609375,-3.678532361984253,6.2085161209106445
1713313090068686300,9.538686279296876,-1.5071172714233398,-3.185822010040283,4.736670017242432
1713313090078221300,9.54822119140625,-0.63502436876297,-2.257582426071167,2.7465949058532715
1713313090087756300,9.55775634765625,-1.9036651849746704,-1.0817766189575195,1.3123927116394043
1713313090097291300,9.567291259765625,0.7100207209587097,-3.5570883750915527,-0.41164684295654297
1713313090106826200,9.576826171875,1.287372350692749,0.3228883743286133,-6.250592231750488
1713313090116361200,9.586361328125,5.929503440856934,8.479349136352539,-11.035955429077148
1713313090125896200,9.595896240234374,12.873159408569336,4.856971740722656,-16.873916625976562
1713313090135431200,9.60543115234375,15.40306568145752,5.061088562011719,-18.788358688354492
1713313090144966100,9.614966064453125,5.017826557159424,6.067590236663818,-20.40624237060547
1713313090154501000,9.624501220703126,-8.800223350524902,7.328883647918701,-18.608043670654297
1713313090164036000,9.6340361328125,-10.369379997253418,9.631010055541992,-15.217211723327637
1713313090173571000,9.643571044921876,-10.51024055480957,9.044222831726074,-15.903051376342773
1713313090183106000,9.65310595703125,-9.872836112976074,7.894819259643555,-15.64493179321289
1713313090192641300,9.662641357421874,-11.904706954956055,7.362303733825684,-11.98108196258545
1713313090202176300,9.67217626953125,-10.446423530578613,5.692227363586426,-6.222306251525879
1713313090211711200,9.681711181640624,-3.276047706604004,4.293366432189941,-3.6223831176757812
1713313090221246200,9.69124609375,1.3694223165512085,3.2351298332214355,-1.240264892578125
1713313090230781200,9.70078125,3.1002001762390137,2.285886287689209,0.542236328125
1713313090240316200,9.710316162109375,2.749398708343506,2.094287872314453,1.9564990997314453
1713313090249851100,9.71985107421875,1.3100379705429077,2.2370996475219727,3.2795591354370117
1713313090259386000,9.72938623046875,-0.13714107871055603,2.039355754852295,3.9608421325683594
1713313090268921000,9.738921142578125,-0.15034261345863342,0.9555745124816895,4.437991619110107
1713313090278456000,9.7484560546875,-0.025225363671779633,-0.8903470039367676,5.0124921798706055
1713313090287991000,9.757990966796875,0.06353415548801422,-2.652676582336426,5.08978271484375
1713313090297526000,9.767526123046874,0.9319794774055481,-4.0791144371032715,5.256073951721191
1713313090307061000,9.77706103515625,1.3205890655517578,-5.496970176696777,5.605018138885498
1713313090316596000,9.786595947265624,1.5141849517822266,-6.886624336242676,6.43922758102417
1713313090326131000,9.796130859375,1.4531124830245972,-7.989886283874512,7.2544264793396
1713313090335666200,9.805666259765625,0.938306450843811,-8.333869934082031,7.994617938995361
1713313090345201200,9.815201171875,0.05494387447834015,-8.37176513671875,8.708202362060547
1713313090354736000,9.824736083984375,-0.8527995347976685,-7.862455368041992,9.040931701660156
1713313090364271000,9.83427099609375,-0.8399084806442261,-6.880814552307129,8.847884178161621
1713313090373806000,9.84380615234375,-0.07221478223800659,-6.106530666351318,8.149718284606934
1713313090383341000,9.853341064453126,0.8881027102470398,-6.038172721862793,7.19985818862915
1713313090392876000,9.8628759765625,1.5508396625518799,-6.460336685180664,6.979408264160156
1713313090402411000,9.872410888671874,1.8730130195617676,-6.767946243286133,7.264936923980713
1713313090411946000,9.881946044921875,2.0310871601104736,-6.531218528747559,7.334644794464111
1713313090421481000,9.89148095703125,2.2051212787628174,-5.751635551452637,7.000716209411621
1713313090431016000,9.901015869140625,2.137441635131836,-5.096081733703613,5.5091071128845215
1713313090440551000,9.910551025390625,1.7504079341888428,-4.424907684326172,4.204107284545898
1713313090450086000,9.9200859375,1.0692418813705444,-3.6010324954986572,2.858823299407959
1713313090459620900,9.929620849609375,-0.9192079305648804,-3.406806468963623,2.014157295227051
1713313090469155800,9.93915576171875,1.3099900484085083,-3.5898916721343994,-0.27213001251220703
1713313090478691000,9.948691162109375,7.850950717926025,-3.4007396697998047,-3.0580739974975586
1713313090488226000,9.95822607421875,12.408895492553711,-0.5628347396850586,-3.5387134552001953
1713313090497761000,9.967760986328125,10.526476860046387,3.4830780029296875,-4.809344291687012
1713313090507295700,9.977295654296874,4.365233421325684,7.219160556793213,-7.632622718811035
1713313090516831000,9.9868310546875,-15.385022163391113,8.37015151977539,-15.734143257141113
1713313090526366000,9.996365966796875,-22.982370376586914,9.955608367919922,-29.343502044677734
1713313090535901000,10.00590087890625,-11.533709526062012,11.686975479125977,-32.35486602783203
1713313090545436000,10.015435791015625,0.30973947048187256,9.631587028503418,-25.83428955078125
1713313090554971000,10.024970947265626,3.808563709259033,5.659417629241943,-18.673036575317383
1713313090564505900,10.034505859375,1.8975908756256104,4.093722820281982,-11.794411659240723
1713313090574040800,10.044040771484376,0.9298519492149353,4.239840507507324,-7.670966148376465
1713313090583575800,10.053575927734375,-1.0826499462127686,4.23789119720459,-4.209062576293945
1713313090593110800,10.06311083984375,-3.7099480628967285,3.5941905975341797,-1.0899419784545898
1713313090602645800,10.072645751953125,-5.844095230102539,3.7176356315612793,1.2573394775390625
1713313090612180700,10.0821806640625,-7.007715702056885,3.921769618988037,2.3984317779541016
1713313090621716000,10.091716064453125,-6.25054931640625,3.75960636138916,3.24392032623291
1713313090631251000,10.1012509765625,-4.247835159301758,3.0514073371887207,3.753880500793457
1713313090640785700,10.11078564453125,-1.920039176940918,2.297820568084717,4.278756618499756
1713313090650320600,10.120320556640625,0.14378762245178223,1.1905169486999512,4.74807071685791
1713313090659856000,10.12985595703125,0.8157325983047485,-0.19215726852416992,5.811985015869141
1713313090669390800,10.139390869140625,0.9126702547073364,-1.8156523704528809,7.347668170928955
1713313090678925800,10.14892578125,0.7199289798736572,-3.6664068698883057,8.466848373413086
1713313090688460800,10.158460693359375,1.3697926998138428,-5.594341278076172,9.640300750732422
1713313090697995800,10.167995849609374,2.8685057163238525,-7.297701835632324,11.064456939697266
1713313090707530800,10.17753076171875,4.367849349975586,-8.815841674804688,12.243101119995117
1713313090717065700,10.187065673828124,5.512520790100098,-9.982426643371582,13.047456741333008
1713313090726600700,10.1966005859375,5.816118240356445,-10.557536125183105,13.038291931152344
1713313090736135700,10.2061357421875,5.421967029571533,-10.464065551757812,11.99514389038086
1713313090745670700,10.215670654296876,4.511724948883057,-9.681431770324707,10.770536422729492
1713313090755205600,10.22520556640625,3.316898822784424,-8.825239181518555,9.273681640625
1713313090764740900,10.234740966796876,2.607677936553955,-8.172609329223633,8.781827926635742
1713313090774275600,10.244275634765625,2.0835838317871094,-7.6019721031188965,8.631756782531738
1713313090783810600,10.253810546875,1.5296852588653564,-7.272821426391602,7.982515335083008
1713313090793345500,10.263345458984375,0.3333907127380371,-7.035634994506836,7.582925319671631
1713313090802880800,10.272880859375,-0.7369241714477539,-6.270470142364502,6.731813430786133
1713313090812415700,10.282415771484375,-1.4933041334152222,-5.1201019287109375,5.143035888671875
1713313090821950700,10.29195068359375,-2.5501506328582764,-3.594066619873047,2.9462151527404785
1713313090831485700,10.301485595703125,-3.874422073364258,-1.5261917114257812,0.6577954292297363
1713313090841020700,10.311020751953125,-2.8353238105773926,-0.904879093170166,-1.1401691436767578
1713313090850555600,10.3205556640625,1.0808535814285278,-2.1094913482666016,-4.27046537399292
1713313090860090600,10.330090576171875,0.8744856119155884,6.9991455078125,-9.659059524536133
1713313090869625600,10.33962548828125,10.911076545715332,11.051004409790039,-13.924779891967773
1713313090879160600,10.34916064453125,19.158405303955078,8.713876724243164,-16.890647888183594
1713313090888695600,10.358695556640624,25.0949649810791,11.117023468017578,-21.662918090820312
1713313090898230500,10.36823046875,13.915632247924805,12.235158920288086,-32.45305633544922
1713313090907765500,10.377765625,0.8848901987075806,14.142217636108398,-31.920639038085938
1713313090917300500,10.387300537109375,-8.752450942993164,13.757728576660156,-28.689035415649414
1713313090926835500,10.39683544921875,-18.2856502532959,8.110986709594727,-23.12771224975586
1713313090936370400,10.406370361328126,-24.353839874267578,2.792323589324951,-10.852078437805176
1713313090945905700,10.41590576171875,-19.7211856842041,-1.0468173027038574,-4.418828010559082
1713313090955440600,10.425440673828126,-11.661700248718262,-2.362337112426758,0.06686115264892578
1713313090964975600,10.4349755859375,-3.1347403526306152,-2.811805009841919,1.8357229232788086
1713313090974510600,10.444510498046874,1.4186594486236572,-2.6045007705688477,4.172446250915527
1713313090984045600,10.454045654296875,2.1904730796813965,-1.6207289695739746,5.949087619781494
1713313090993580500,10.46358056640625,1.962104082107544,-0.39516162872314453,6.478652477264404
1713313091003115500,10.473115478515625,4.227624416351318,0.5161571502685547,5.281556606292725
1713313091012650500,10.482650390625,5.747522830963135,1.1764750480651855,3.6217150688171387
1713313091022185500,10.492185546875,4.389810562133789,1.9969868659973145,2.303534507751465
1713313091031720400,10.501720458984375,0.7432056069374084,2.4198803901672363,1.9118313789367676
1713313091041255400,10.51125537109375,-2.5177907943725586,1.3180828094482422,2.043020725250244
1713313091050790400,10.520790283203125,-3.158862590789795,-0.255948543548584,1.9802742004394531
1713313091060325400,10.530325439453126,-2.3179025650024414,-1.849848747253418,3.2183761596679688
1713313091069860400,10.5398603515625,-1.6769723892211914,-3.9178895950317383,4.656293869018555
1713313091079395300,10.549395263671874,-0.5992109179496765,-5.24354362487793,6.694829940795898
1713313091088930600,10.5589306640625,1.00162672996521,-6.222363471984863,8.121749877929688
1713313091098465500,10.568465576171874,2.511701822280884,-6.907618522644043,8.835865020751953
1713313091108000500,10.57800048828125,3.4278197288513184,-6.6317033767700195,9.700760841369629
1713313091117535500,10.587535400390625,3.705594062805176,-6.101644515991211,10.181986808776855
1713313091127070500,10.597070556640626,3.662846088409424,-5.674551963806152,9.778312683105469
1713313091136605400,10.60660546875,3.6503427028656006,-5.418970108032227,9.05163288116455
1713313091146140400,10.616140380859376,3.6024746894836426,-5.282748222351074,8.038304328918457
1713313091155675400,10.62567529296875,3.4054460525512695,-5.4021806716918945,7.1190996170043945
1713313091165210400,10.63521044921875,3.248143196105957,-5.772687911987305,6.826456546783447
1713313091174745300,10.644745361328125,2.7140321731567383,-6.124392509460449,6.620413780212402
1713313091184280300,10.6542802734375,1.8007603883743286,-6.054162979125977,6.238524436950684
1713313091193815300,10.663815185546875,0.8571580648422241,-5.484930038452148,5.3076043128967285
1713313091203350300,10.673350341796874,0.6060153245925903,-4.655951023101807,3.9948110580444336
1713313091212885200,10.68288525390625,0.05261373519897461,-4.109611988067627,3.4329609870910645
1713313091222420200,10.692420166015625,-3.9563794136047363,-3.9244580268859863,3.5539984703063965
1713313091231955500,10.70195556640625,-2.149043083190918,-4.313268184661865,-0.5926318168640137
1713313091241490400,10.711490478515625,8.473662376403809,-5.535943031311035,-4.867527961730957
1713313091251025400,10.721025390625,15.360329627990723,-3.8994195461273193,-0.5968937873840332
1713313091260560400,10.730560302734375,12.770173072814941,-1.2464556694030762,3.7775611877441406
1713313091270095400,10.740095458984374,3.805469036102295,4.2802228927612305,-4.429070472717285
1713313091279630300,10.74963037109375,-15.682147026062012,13.34682846069336,-25.502117156982422
1713313091289165300,10.759165283203124,-15.985949516296387,15.96579647064209,-45.248313903808594
1713313091298700300,10.7687001953125,-7.622742652893066,16.614856719970703,-41.79053497314453
1713313091308235300,10.7782353515625,-3.5723719596862793,11.503349304199219,-32.11327362060547
1713313091317770200,10.787770263671876,-4.653162479400635,2.682338237762451,-18.87034034729004
1713313091327305200,10.79730517578125,2.112489700317383,-3.0106194019317627,-7.353187561035156
1713313091336840200,10.806840087890626,5.837949752807617,-5.00308895111084,-0.9862251281738281
1713313091346375200,10.816375244140625,4.69470739364624,-5.6507463455200195,2.931797981262207
1713313091355910100,10.82591015625,-0.479655385017395,-5.156615734100342,6.3891777992248535
1713313091365445000,10.835445068359375,-6.72347354888916,-3.454558849334717,8.354853630065918
1713313091374980400,10.84498046875,-10.232213973999023,-0.9579682350158691,8.194701194763184
1713313091384515300,10.854515380859375,-8.82784366607666,0.7682685852050781,6.432816028594971
1713313091394050300,10.86405029296875,-5.687397003173828,1.295821189880371,4.548793792724609
1713313091403585300,10.873585205078125,-2.8480725288391113,1.5680522918701172,3.7132387161254883
1713313091413120300,10.883120361328125,-1.3589969873428345,1.5315337181091309,3.9886627197265625
1713313091422655200,10.8926552734375,-0.7513625621795654,0.7871017456054688,4.705111026763916
1713313091432190200,10.902190185546875,0.033873677253723145,-0.0943903923034668,5.436254501342773
1713313091441725200,10.91172509765625,0.9269568920135498,-1.0419921875,5.905486106872559
1713313091451260200,10.92126025390625,1.9485681056976318,-1.6877336502075195,6.5562334060668945
1713313091460795100,10.930795166015624,2.2288730144500732,-2.295635461807251,7.110729217529297
1713313091470330000,10.940330078125,2.5378689765930176,-2.932892322540283,7.91542911529541
1713313091479865000,10.949864990234374,2.8551125526428223,-3.8585193157196045,8.90384292602539
1713313091489400000,10.959400146484375,2.8933463096618652,-4.933649063110352,9.82239055633545
1713313091498935000,10.96893505859375,3.028348922729492,-5.9307169914245605,10.798744201660156
1713313091508470000,10.978469970703125,3.128248691558838,-6.911140441894531,11.304038047790527
1713313091518005200,10.988005126953125,2.5005381107330322,-7.570313453674316,11.462675094604492
1713313091527540200,10.997540283203126,1.358316421508789,-7.638322830200195,11.054884910583496
1713313091537075200,11.0070751953125,0.5190829038619995,-7.4562578201293945,10.070585250854492
1713313091546610200,11.016610107421876,0.022799432277679443,-7.366091728210449,8.018705368041992
1713313091556145200,11.026145263671875,-0.7534399628639221,-7.034398555755615,4.854895114898682
1713313091565680000,11.03568017578125,-0.03432667255401611,-6.30413293838501,1.7610750198364258
1713313091575215000,11.045215087890625,3.626682758331299,-5.5043253898620605,-3.1423096656799316
1713313091584750000,11.05475,7.641477108001709,-3.0591237545013428,-8.39911937713623
1713313091594285000,11.06428515625,9.58252239227295,5.6792893409729,-12.27231216430664
1713313091603820000,11.073820068359375,14.90182876586914,9.664073944091797,-16.829925537109375
1713313091613355000,11.08335498046875,14.201727867126465,6.597283363342285,-25.129980087280273
1713313091622890000,11.092889892578125,15.073914527893066,8.133735656738281,-33.28396224975586
1713313091632425000,11.102425048828126,6.32799768447876,12.071517944335938,-30.720266342163086
1713313091641960000,11.1119599609375,-6.528822898864746,12.80906867980957,-33.17475509643555
1713313091651495000,11.121494873046874,-7.936622619628906,8.432167053222656,-29.057268142700195
1713313091661030100,11.131030029296875,-9.366788864135742,0.7550864219665527,-23.021625518798828
1713313091670565000,11.140565185546874,-9.954886436462402,-4.994093894958496,-11.138663291931152
1713313091680100000,11.15010009765625,-10.163064002990723,-6.867827892303467,-0.06560134887695312
1713313091689635000,11.159635009765625,-10.51616096496582,-7.913999557495117,5.069616794586182
1713313091699170000,11.169170166015626,-10.1974458694458,-7.285508155822754,6.372323989868164
1713313091708705000,11.178705078125,-5.261292457580566,-4.9828972816467285,5.216065406799316
1713313091718240000,11.188239990234376,-0.04894256591796875,-3.1615066528320312,4.217726230621338
1713313091727775000,11.19777490234375,2.4089407920837402,-1.5270514488220215,3.9209680557250977
1713313091737310000,11.20731005859375,4.348780632019043,0.14750003814697266,2.71291446685791
1713313091746845000,11.216844970703125,4.814200401306152,1.4110403060913086,2.1627883911132812
1713313091756380000,11.2263798828125,3.2183480262756348,2.3817687034606934,2.001023292541504
1713313091765915000,11.235914794921875,0.2238926887512207,3.1729440689086914,1.9276232719421387
1713313091775449900,11.245449951171874,-2.532764434814453,3.348987579345703,2.0030550956726074
1713313091784984800,11.25498486328125,-3.5127716064453125,2.9842453002929688,1.2296695709228516
1713313091794519800,11.264519775390625,-3.626893997192383,2.501781940460205,0.6459217071533203
1713313091804055000,11.274054931640626,-2.535595417022705,1.783857822418213,-0.06561851501464844
1713313091813590000,11.283590087890625,-0.578778862953186,0.7883758544921875,0.7227177619934082
1713313091823125000,11.293125,1.3837302923202515,-0.06015491485595703,1.488783836364746
1713313091832660000,11.302659912109375,3.3183557987213135,-0.6989445686340332,2.6846866607666016
1713313091842195000,11.31219482421875,4.401498794555664,-1.1727962493896484,3.6116743087768555
1713313091851730000,11.32172998046875,4.71395206451416,-1.4729623794555664,4.999339580535889
1713313091861265000,11.331264892578124,4.1099958419799805,-1.5795528888702393,6.611176490783691
1713313091870800000,11.3407998046875,3.1114587783813477,-1.8044109344482422,7.973851203918457
1713313091880334800,11.3503349609375,2.2334656715393066,-2.1322755813598633,8.242573738098145
1713313091889869800,11.359869873046875,1.8877571821212769,-2.5737712383270264,7.619738578796387
1713313091899404800,11.36940478515625,1.6357355117797852,-2.8659110069274902,6.997772693634033
1713313091908939800,11.378939697265626,1.4255646467208862,-3.7276227474212646,6.730315208435059
1713313091918474800,11.388474853515625,1.4961678981781006,-5.0351152420043945,6.656044006347656
1713313091928009700,11.398009765625,1.781687617301941,-6.09605073928833,6.285286903381348
1713313091937544700,11.407544677734375,1.8241815567016602,-6.896699905395508,5.519124507904053
1713313091947080000,11.417079833984374,0.5256184339523315,-7.507080554962158,4.403104782104492
1713313091956615000,11.426614990234375,-1.550512433052063,-7.271753311157227,3.1224422454833984
1713313091966150000,11.43614990234375,0.43106770515441895,-6.915719509124756,0.16457176208496094
1713313091975684900,11.445684814453125,5.215322494506836,-7.319194793701172,-1.405827522277832
1713313091985219800,11.4552197265625,11.193451881408691,-6.539613246917725,-0.03102588653564453
1713313091994754800,11.4647548828125,12.342245101928711,-4.4295244216918945,0.4464302062988281
1713313092004289800,11.474289794921875,9.046156883239746,-1.2373266220092773,-4.9211106300354
1713313092013824800,11.48382470703125,1.5108163356781006,2.0641679763793945,-11.976356506347656
1713313092023359700,11.49335986328125,-13.652318000793457,6.473987102508545,-24.837968826293945
1713313092032894700,11.502894775390626,-14.392757415771484,10.164419174194336,-31.383501052856445
1713313092042429700,11.5124296875,-9.261564254760742,9.954051971435547,-29.265474319458008
1713313092051964700,11.521964599609374,-6.672715663909912,5.067131042480469,-21.96342658996582
1713313092061499600,11.531499755859375,-1.8309991359710693,-0.6081395149230957,-11.813959121704102
1713313092071034600,11.54103466796875,3.5388529300689697,-4.503546714782715,-3.4066333770751953
1713313092080569600,11.550569580078125,6.249365329742432,-5.756311893463135,1.0330705642700195
1713313092090104800,11.560104736328125,6.799811363220215,-4.963856220245361,0.8925104141235352
1713313092099639800,11.569639892578126,5.110078811645508,-3.2511017322540283,0.06438684463500977
1713313092109175000,11.579175048828125,2.0659685134887695,-2.2312283515930176,-0.3400564193725586
1713313092118710000,11.5887099609375,-0.8233218193054199,-1.5966038703918457,0.3294639587402344
1713313092128245000,11.598244873046875,-2.8510513305664062,-1.0226387977600098,1.3830313682556152
1713313092137780000,11.607780029296874,-4.214005947113037,-0.7042803764343262,1.8834939002990723
1713313092147315000,11.61731494140625,-5.614673137664795,-0.4772462844848633,1.9975037574768066
1713313092156850000,11.626849853515624,-6.593604564666748,-0.29606199264526367,1.6762051582336426
1713313092166385000,11.636385009765625,-6.998824596405029,-0.25499820709228516,1.296067714691162
1713313092175919900,11.645919921875,-6.486424446105957,-0.24361610412597656,1.1646184921264648
1713313092185454800,11.655454833984376,-4.797552108764648,-0.7585558891296387,0.9617457389831543
1713313092194989800,11.66498974609375,-2.446894645690918,-1.2288308143615723,0.6126809120178223
1713313092204524800,11.67452490234375,0.1376107931137085,-1.2836275100708008,0.6534123420715332
1713313092214059800,11.684059814453125,2.276801109313965,-1.257204532623291,0.9825892448425293
1713313092223595000,11.693594970703124,3.762387752532959,-1.3341450691223145,1.1494498252868652
1713313092233130000,11.7031298828125,4.405919551849365,-1.296308994293213,1.6287775039672852
1713313092242665000,11.7126650390625,3.903165102005005,-1.0390958786010742,2.2043099403381348
1713313092252200000,11.722199951171875,2.660665988922119,-0.8529872894287109,2.852858066558838
1713313092261735000,11.73173486328125,1.1444036960601807,-0.8582124710083008,3.656132221221924
1713313092271270000,11.741269775390625,-0.48219752311706543,-1.1780405044555664,4.578136444091797
1713313092280804900,11.750804931640625,-1.5507270097732544,-1.6807870864868164,5.514163494110107
1713313092290339800,11.76033984375,-2.020740032196045,-2.1221890449523926,6.305126190185547
1713313092299874800,11.769874755859375,-2.071228504180908,-2.6399478912353516,6.9486403465271
1713313092309409800,11.779409912109376,-1.8123114109039307,-3.275956153869629,7.299282550811768
1713313092318944800,11.78894482421875,-1.21603262424469,-3.542860984802246,7.491672515869141
1713313092328479700,11.798479736328124,-0.7768656015396118,-3.65114164352417,7.5867719650268555
1713313092338014700,11.8080146484375,-0.2006591558456421,-3.688631057739258,7.686779499053955
1713313092347549700,11.8175498046875,0.07961463928222656,-4.156343460083008,7.532205104827881
1713313092357084700,11.827084716796875,0.45733773708343506,-4.4467363357543945,7.913856029510498
1713313092366620000,11.836619873046875,1.0151565074920654,-4.144007205963135,8.327603340148926
1713313092376155000,11.84615478515625,1.137429118156433,-3.8381574153900146,8.04029655456543
1713313092385689900,11.85568994140625,1.0027384757995605,-3.36236572265625,6.9893646240234375
1713313092395224800,11.865224853515626,0.800753116607666,-2.2118353843688965,5.442492485046387
1713313092404759800,11.874759765625,-0.04346632957458496,-1.7120821475982666,2.3309736251831055
1713313092414294800,11.884294677734376,-1.3821734189987183,-1.3860735893249512,0.3249778747558594
1713313092423829800,11.893829833984375,0.2971954345703125,-1.5294756889343262,-0.9945621490478516
1713313092433364700,11.90336474609375,3.0382585525512695,-2.0171701908111572,-2.327383041381836
1713313092442899700,11.912899658203125,5.103621006011963,-2.0790200233459473,-3.7000036239624023
1713313092452434700,11.9224345703125,8.446626663208008,-2.1050024032592773,-4.214581489562988
1713313092461969700,11.9319697265625,9.133289337158203,-0.5742940902709961,-6.3580756187438965
1713313092471504600,11.941504638671875,8.341340065002441,2.5181970596313477,-7.434141159057617
1713313092481039600,11.95103955078125,8.578993797302246,3.023433208465576,-11.617010116577148
1713313092490574600,11.96057470703125,8.457901954650879,3.933967113494873,-15.312492370605469
1713313092500109600,11.970109619140626,5.8475165367126465,6.824337482452393,-21.776113510131836
1713313092509644800,11.979644775390625,2.8127694129943848,8.898789405822754,-25.399494171142578
1713313092519179800,11.9891796875,0.9895035028457642,8.678245544433594,-23.407575607299805
1713313092528714800,11.99871484375,-2.064481019973755,5.66051721572876,-19.801128387451172
1713313092538249700,12.008249755859374,-3.2847728729248047,1.3617358207702637,-13.164785385131836
1713313092547784700,12.01778466796875,-3.2467708587646484,-1.1525368690490723,-5.257302284240723
1713313092557319700,12.027319580078125,-2.018164873123169,-1.1373529434204102,-1.2488288879394531
1713313092566854700,12.036854736328126,0.17856931686401367,-1.126204490661621,-1.2022590637207031
1713313092576389600,12.0463896484375,2.48746395111084,-1.4186732769012451,-1.5833759307861328
1713313092585924600,12.055924560546876,3.189256429672241,-1.4089484214782715,-2.013580322265625
1713313092595459600,12.06545947265625,2.382080078125,-1.1806700229644775,-2.081583023071289
1713313092604994600,12.07499462890625,0.9825074672698975,-1.300971269607544,-1.3353681564331055
1713313092614529500,12.084529541015625,-0.5717860460281372,-1.7391085624694824,-0.07225322723388672
1713313092624064500,12.094064453125,-2.084897994995117,-2.2917652130126953,1.0922660827636719
1713313092633599500,12.103599609375,-3.34832763671875,-2.5775532722473145,1.8475265502929688
1713313092643134500,12.113134521484374,-4.33636999130249,-2.1959080696105957,2.0313291549682617
1713313092652669700,12.122669677734375,-4.329683303833008,-1.1649270057678223,2.0159807205200195
1713313092662204700,12.13220458984375,-3.5229272842407227,-0.23198890686035156,1.9223637580871582
1713313092671739600,12.14173974609375,-2.564350128173828,0.4516725540161133,1.7984166145324707
1713313092681274600,12.151274658203125,-1.5526471138000488,0.8933658599853516,1.9119138717651367
1713313092690809600,12.1608095703125,-0.6081740260124207,1.3828182220458984,2.4186792373657227
1713313092700344600,12.170344482421875,-0.2542925179004669,1.7281160354614258,4.091383457183838
1713313092709879600,12.179879638671874,-0.8053845167160034,1.7121777534484863,4.74641227722168
1713313092719414500,12.18941455078125,-1.549126386642456,2.0328402519226074,5.028378963470459
1713313092728949500,12.198949462890624,-3.773423433303833,2.055119037628174,5.378191947937012
